Sub	Run	Trial	OldT	Delay	LuckyDeck	ObjPP	OldObjLuckyDeck	ObjDeckMatch	Outcome	Resp	RT	DeckC	LuckyDeckC	OldObjC	RevT	OldDeckPP	OldDeck	EncRevT	Enc_Pay1	OptObj	PP	StayResp
2	1	1	0	NaN	1	NaN	NaN	NaN	0	2	682.994828006485	1	1	NaN	1	NaN	NaN	NaN	NaN	NaN	NaN	NaN
2	1	2	0	NaN	1	NaN	NaN	NaN	0.4	1	752.208798003267	2	0	NaN	2	NaN	NaN	NaN	NaN	NaN	0	0
2	1	3	0	NaN	1	NaN	NaN	NaN	0.6	1	459.360705004656	1	1	NaN	3	NaN	NaN	NaN	NaN	NaN	0.4	0
2	1	4	0	NaN	1	NaN	NaN	NaN	1	1	817.894357998739	1	1	NaN	4	NaN	NaN	NaN	NaN	NaN	0.6	1
2	1	5	0	NaN	1	NaN	NaN	NaN	1	2	600.517386992578	1	1	NaN	5	NaN	NaN	NaN	NaN	NaN	1	1
2	1	6	0	NaN	1	NaN	NaN	NaN	0.2	1	691.732658990077	1	1	NaN	6	NaN	NaN	NaN	NaN	NaN	1	1
2	1	7	0	NaN	1	NaN	NaN	NaN	0.6	2	659.08868900442	2	0	NaN	7	NaN	NaN	NaN	NaN	NaN	0.2	0
2	1	8	0	NaN	1	NaN	NaN	NaN	0.4	1	770.76883900736	2	0	NaN	8	NaN	NaN	NaN	NaN	NaN	0.6	1
2	1	9	0	NaN	1	NaN	NaN	NaN	0.2	1	559.015516992076	1	1	NaN	9	NaN	NaN	NaN	NaN	NaN	0.4	0
2	1	10	0	NaN	1	NaN	NaN	NaN	0	2	702.288237996981	2	0	NaN	10	NaN	NaN	NaN	NaN	NaN	0.2	0
2	1	11	0	NaN	1	NaN	NaN	NaN	0.4	2	1144.71003899234	1	1	NaN	11	NaN	NaN	NaN	NaN	NaN	0	0
2	1	12	0	NaN	1	NaN	NaN	NaN	0.6	1	625.629000001936	1	1	NaN	12	NaN	NaN	NaN	NaN	NaN	0.4	1
2	1	13	1	10	1	0.6	0	0	0.6	2	954.110524995485	1	1	1	13	0.6	1	3	0.4	1	0.6	1
2	1	14	1	12	1	0.4	1	0	0.4	1	1000.76265000098	2	0	1	14	0	2	2	0	0	0.6	0
2	1	15	1	11	1	1	0	0	1	2	618.862502000411	1	1	1	15	0.6	1	4	0.6	1	0.4	0
2	1	16	0	NaN	1	NaN	NaN	NaN	0.2	1	1172.10318800062	1	1	NaN	16	NaN	NaN	NaN	NaN	NaN	1	1
2	1	17	0	NaN	1	NaN	NaN	NaN	0.8	1	1195.43103799515	1	1	NaN	17	NaN	NaN	NaN	NaN	NaN	0.2	1
2	1	18	1	17	2	0	1	0	0.6	2	1045.11750899837	2	1	0	1	0.8	1	1	NaN	1	0.8	0
2	1	19	1	10	2	0.2	1	0	0.8	1	1021.7421129928	2	1	0	2	0.8	1	9	0.4	1	0.6	1
2	1	20	1	14	2	0.2	1	0	0.4	1	1345.23219100083	2	1	0	3	0.8	1	6	1	1	0.8	1
2	1	21	1	14	2	0.6	0	0	0.6	1	986.558874996263	2	1	1	4	0.4	2	7	0.2	1	0.4	1
2	1	22	1	10	2	0.6	1	1	0.6	2	1266.79131800483	1	0	1	5	0.8	1	12	0.4	1	0.6	0
2	1	23	0	NaN	2	NaN	NaN	NaN	0.8	1	1375.90971300961	1	0	NaN	6	NaN	NaN	NaN	NaN	NaN	0.6	1
2	1	24	0	NaN	2	NaN	NaN	NaN	NaN	NaN	NaN	NaN	NaN	NaN	7	NaN	NaN	NaN	NaN	NaN	0.8	0
2	1	25	0	NaN	2	NaN	NaN	NaN	0.8	1	864.830780003103	2	1	NaN	8	NaN	NaN	NaN	NaN	NaN	NaN	0
2	1	26	0	NaN	2	NaN	NaN	NaN	1	2	992.497956991429	2	1	NaN	9	NaN	NaN	NaN	NaN	NaN	0.8	1
2	1	27	1	11	2	0.2	1	0	0.8	2	1044.0432989999	2	1	0	10	0.8	1	16	1	1	1	1
2	1	28	1	17	2	0.4	1	0	1	1	907.435493005323	2	1	0	11	0.8	1	11	0	1	0.8	1
2	1	29	1	24	2	1	1	1	0.2	1	988.082951007527	2	1	0	12	0.8	1	5	1	0	1	1
2	1	30	1	22	2	0.4	0	1	0.4	1	742.54553100036	2	1	1	13	0.2	2	8	0.6	0	0.2	1
2	1	31	0	NaN	2	NaN	NaN	NaN	0.2	2	1083.6217909964	1	0	NaN	14	NaN	NaN	NaN	NaN	NaN	0.4	0
2	1	32	1	22	2	0	0	1	0	1	715.055729000596	2	1	1	15	0.4	2	10	0.2	0	0.2	0
2	1	33	1	16	2	0.8	1	1	0.8	2	898.720996003249	2	1	0	16	0.2	1	17	0.2	0	0	1
2	1	34	0	NaN	2	NaN	NaN	NaN	0.6	2	886.452437000116	2	1	NaN	17	NaN	NaN	NaN	NaN	NaN	0.8	1
2	1	35	1	10	2	0.8	0	0	0.8	1	1048.36588801118	2	1	1	18	0.6	2	8	NaN	1	0.6	1
2	1	36	0	NaN	2	NaN	NaN	NaN	0	1	817.22548599646	1	0	NaN	19	NaN	NaN	NaN	NaN	NaN	0.8	0
2	1	37	0	NaN	2	NaN	NaN	NaN	0.2	1	1075.37614299508	1	0	NaN	20	NaN	NaN	NaN	NaN	NaN	0	1
2	1	38	0	NaN	2	NaN	NaN	NaN	0.6	2	680.300508989603	1	0	NaN	21	NaN	NaN	NaN	NaN	NaN	0.2	1
2	1	39	0	NaN	1	NaN	NaN	NaN	0.6	1	612.638985010562	2	0	NaN	1	NaN	NaN	NaN	NaN	NaN	0.6	0
2	1	40	1	14	1	1	1	1	1	2	883.498427996528	2	0	1	2	0.6	2	9	0.8	1	0.6	1
2	1	41	1	18	1	0.8	0	0	0.8	2	1056.50021899783	1	1	1	3	0.6	1	6	0.6	1	1	0
2	1	42	0	NaN	1	NaN	NaN	NaN	0.6	1	1000.81802299246	1	1	NaN	4	NaN	NaN	NaN	NaN	NaN	0.8	1
2	1	43	0	NaN	1	NaN	NaN	NaN	0.6	2	1017.82181300223	1	1	NaN	5	NaN	NaN	NaN	NaN	NaN	0.6	1
2	1	44	1	10	1	0.6	1	1	0.6	1	1012.82055900083	2	0	1	6	1	2	17	0.8	1	0.6	0
2	1	45	0	NaN	1	NaN	NaN	NaN	1	2	447.978252006578	1	1	NaN	7	NaN	NaN	NaN	NaN	NaN	0.6	0
2	1	46	1	10	1	0	0	1	0	1	617.834150994895	1	1	1	8	1	1	19	0.8	0	1	1
2	1	47	0	NaN	1	NaN	NaN	NaN	0.4	2	822.413593996316	2	0	NaN	9	NaN	NaN	NaN	NaN	NaN	0	0
2	1	48	1	10	1	0.6	0	0	0.2	1	1055.82415100071	2	0	0	10	0	1	21	0.2	0	0.4	1
2	1	49	0	NaN	1	NaN	NaN	NaN	0.2	1	858.295814003213	2	0	NaN	11	NaN	NaN	NaN	NaN	NaN	0.2	1
2	1	50	0	NaN	1	NaN	NaN	NaN	0.2	1	1133.97939701099	2	0	NaN	12	NaN	NaN	NaN	NaN	NaN	0.2	1
2	1	51	0	NaN	1	NaN	NaN	NaN	0.8	1	822.165681995102	2	0	NaN	13	NaN	NaN	NaN	NaN	NaN	0.2	1
2	1	52	1	10	1	0.6	0	0	0.2	2	1201.06175899855	2	0	0	14	0	1	4	0.8	0	0.8	1
2	1	53	0	NaN	1	NaN	NaN	NaN	0.8	1	743.777880998095	1	1	NaN	15	NaN	NaN	NaN	NaN	NaN	0.2	0
2	1	54	0	NaN	1	NaN	NaN	NaN	0.8	1	1224.75927099003	1	1	NaN	16	NaN	NaN	NaN	NaN	NaN	0.8	1
2	1	55	1	18	1	0.2	0	1	0.8	2	831.532530995901	2	0	0	17	0.8	1	20	0	1	0.8	0
2	1	56	0	NaN	1	NaN	NaN	NaN	0.8	1	824.21949300624	2	0	NaN	18	NaN	NaN	NaN	NaN	NaN	0.8	1
2	1	57	0	NaN	1	NaN	NaN	NaN	0.4	2	880.32572499651	2	0	NaN	19	NaN	NaN	NaN	NaN	NaN	0.8	1
2	1	58	1	19	1	0.6	1	1	0.6	2	975.741239002673	2	0	1	20	0.4	2	1	0.6	1	0.4	1
2	1	59	1	28	1	0.2	0	1	0	1	751.113581995014	2	0	0	21	0.8	1	14	0.4	1	0.6	1
2	1	60	1	17	1	0.6	0	0	0.6	2	850.567100002081	1	1	1	22	0.8	1	5	0.6	1	0	0
2	2	61	1	10	1	0.8	1	1	0.8	1	820.522328998777	2	0	1	23	0	2	13	0.2	1	0.6	0
2	2	62	1	12	1	0.2	1	0	0.2	2	917.46515900013	2	0	1	24	0.8	2	12	0.2	0	0.8	1
2	2	63	0	NaN	2	NaN	NaN	NaN	0.6	1	810.545140993781	1	0	NaN	1	NaN	NaN	NaN	NaN	NaN	0.2	0
2	2	64	1	19	2	1	1	1	1	2	836.345784991863	1	0	1	2	0.6	1	7	0.6	1	0.6	1
2	2	65	0	NaN	2	NaN	NaN	NaN	0.4	1	694.804015991394	1	0	NaN	3	NaN	NaN	NaN	NaN	NaN	1	1
2	2	66	1	10	2	0.8	0	0	0.8	1	800.918171997182	2	1	1	4	0.2	2	18	0.8	1	0.4	0
2	2	67	0	NaN	2	NaN	NaN	NaN	0	1	764.422977998038	1	0	NaN	5	NaN	NaN	NaN	NaN	NaN	0.8	0
2	2	68	0	NaN	2	NaN	NaN	NaN	1	2	834.195324001485	2	1	NaN	6	NaN	NaN	NaN	NaN	NaN	0	0
2	2	69	1	20	2	0.2	0	1	0.2	1	895.335737994174	2	1	1	7	1	2	11	0.2	0	1	1
2	2	70	1	23	2	0.4	0	1	0.4	1	782.457075009006	2	1	1	8	0.2	2	9	0	0	0.2	1
2	2	71	1	14	2	0.4	0	1	0.4	1	1055.88547000661	2	1	1	9	0.4	2	19	0.8	0	0.4	1
2	2	72	0	NaN	2	NaN	NaN	NaN	0	2	700.881427008426	1	0	NaN	10	NaN	NaN	NaN	NaN	NaN	0.4	0
2	2	73	1	10	2	0.6	1	1	1	1	705.415695003467	2	1	0	11	0	1	1	0.2	0	0	0
2	2	74	0	NaN	2	NaN	NaN	NaN	0	2	824.251657992136	1	0	NaN	12	NaN	NaN	NaN	NaN	NaN	1	0
2	2	75	0	NaN	2	NaN	NaN	NaN	0.2	2	931.130330005544	1	0	NaN	13	NaN	NaN	NaN	NaN	NaN	0	1
2	2	76	0	NaN	2	NaN	NaN	NaN	0.6	1	623.433928005397	2	1	NaN	14	NaN	NaN	NaN	NaN	NaN	0.2	0
2	2	77	1	10	2	0	1	0	0.8	2	1232.78962800396	2	1	0	15	0.2	1	5	0.8	1	0.6	1
2	2	78	0	NaN	2	NaN	NaN	NaN	0.8	2	903.107157006161	2	1	NaN	16	NaN	NaN	NaN	NaN	NaN	0.8	1
2	2	79	1	14	1	0.4	0	1	0.4	1	818.023325002287	1	1	1	1	0.2	1	3	1	0	0.8	0
2	2	80	0	NaN	1	NaN	NaN	NaN	0.6	2	824.660963000497	1	1	NaN	2	NaN	NaN	NaN	NaN	NaN	0.4	1
2	2	81	1	28	1	0.8	0	0	0.8	1	845.753898000112	1	1	1	3	0.6	1	15	0.2	1	0.6	1
2	2	82	0	NaN	1	NaN	NaN	NaN	0.2	2	1078.94595299149	2	0	NaN	4	NaN	NaN	NaN	NaN	NaN	0.8	0
2	2	83	0	NaN	1	NaN	NaN	NaN	0.2	1	1116.42915899574	1	1	NaN	5	NaN	NaN	NaN	NaN	NaN	0.2	0
2	2	84	0	NaN	1	NaN	NaN	NaN	0.4	2	1273.356745005	1	1	NaN	6	NaN	NaN	NaN	NaN	NaN	0.2	1
2	2	85	0	NaN	1	NaN	NaN	NaN	0.8	1	908.154773002025	1	1	NaN	7	NaN	NaN	NaN	NaN	NaN	0.4	1
2	2	86	1	11	1	0.2	0	1	0.8	2	860.010682008578	2	0	0	8	0.8	1	13	0	1	0.8	0
2	2	87	0	NaN	1	NaN	NaN	NaN	0.2	1	657.319940000889	2	0	NaN	9	NaN	NaN	NaN	NaN	NaN	0.8	1
2	2	88	1	10	1	0.8	1	1	0.8	2	1101.59310500603	2	0	1	10	0.2	2	16	0.8	1	0.2	1
2	2	89	1	15	1	0	0	1	0.2	2	974.533669999801	2	0	0	11	0.8	1	12	1	1	0.8	1
2	2	90	1	14	1	0.6	1	1	0.4	1	844.757396989735	1	1	0	12	0.2	2	14	0.2	0	0.2	0
2	2	91	0	NaN	1	NaN	NaN	NaN	0	2	934.068907998153	2	0	NaN	13	NaN	NaN	NaN	NaN	NaN	0.4	0
2	2	92	1	24	1	1	1	1	1	1	1064.23371800338	2	0	1	14	0	2	6	0	1	0	1
2	2	93	0	NaN	1	NaN	NaN	NaN	0.4	1	915.037811995717	2	0	NaN	15	NaN	NaN	NaN	NaN	NaN	1	1
2	2	94	1	11	1	0.2	0	1	0.2	2	864.821326002129	1	1	1	16	0.4	1	5	0.2	0	0.4	0
2	2	95	0	NaN	2	NaN	NaN	NaN	0.4	1	810.784084998886	1	0	NaN	1	NaN	NaN	NaN	NaN	NaN	0.2	1
2	2	96	1	24	2	0	1	0	0	2	931.668442004593	1	0	1	2	0.4	1	10	0.4	0	0.4	1
2	2	97	1	13	2	0.4	1	0	0.4	1	791.528637011652	1	0	1	3	0	1	6	0.2	0	0	1
2	2	98	0	NaN	2	NaN	NaN	NaN	1	2	868.753671995364	2	1	NaN	4	NaN	NaN	NaN	NaN	NaN	0.4	0
2	2	99	1	19	2	0.6	1	1	0.8	1	917.779814000824	2	1	0	5	0.4	1	2	0.4	0	1	1
2	2	100	0	NaN	2	NaN	NaN	NaN	0.2	2	837.995045003481	1	0	NaN	6	NaN	NaN	NaN	NaN	NaN	0.8	0
2	2	101	0	NaN	2	NaN	NaN	NaN	1	1	678.826389004826	2	1	NaN	7	NaN	NaN	NaN	NaN	NaN	0.2	0
2	2	102	0	NaN	2	NaN	NaN	NaN	0	2	858.168556995224	1	0	NaN	8	NaN	NaN	NaN	NaN	NaN	1	0
2	2	103	0	NaN	2	NaN	NaN	NaN	0.4	1	658.921601003385	1	0	NaN	9	NaN	NaN	NaN	NaN	NaN	0	1
2	2	104	0	NaN	2	NaN	NaN	NaN	1	1	891.133882003487	2	1	NaN	10	NaN	NaN	NaN	NaN	NaN	0.4	0
2	2	105	0	NaN	2	NaN	NaN	NaN	0.6	2	937.437377986498	2	1	NaN	11	NaN	NaN	NaN	NaN	NaN	1	1
2	2	106	0	NaN	2	NaN	NaN	NaN	0	1	925.190091991681	1	0	NaN	12	NaN	NaN	NaN	NaN	NaN	0.6	0
2	2	107	0	NaN	2	NaN	NaN	NaN	0.8	2	787.84394399554	2	1	NaN	13	NaN	NaN	NaN	NaN	NaN	0	0
2	2	108	0	NaN	2	NaN	NaN	NaN	0	2	765.099618001841	1	0	NaN	14	NaN	NaN	NaN	NaN	NaN	0.8	0
2	2	109	0	NaN	2	NaN	NaN	NaN	1	1	698.612548003439	2	1	NaN	15	NaN	NaN	NaN	NaN	NaN	0	0
2	2	110	1	15	2	0.4	1	0	0.4	1	875.456886002212	2	1	0	16	0	1	1	0.2	1	1	1
2	2	111	1	10	2	1	0	0	0	1	1042.6048119989	1	0	0	17	0.4	2	7	0.2	0	0.4	0
2	2	112	0	NaN	2	NaN	NaN	NaN	0.2	2	1282.31260899338	1	0	NaN	18	NaN	NaN	NaN	NaN	NaN	0	1
2	2	113	1	10	2	0.4	1	0	0.4	1	818.926249005017	1	0	1	19	0.2	1	9	0	0	0.2	1
2	2	114	1	16	2	1	0	0	0	2	788.18429200328	1	0	0	20	0.4	2	4	0.4	0	0.4	1
2	2	115	0	NaN	2	NaN	NaN	NaN	0.2	2	842.897421011003	1	0	NaN	21	NaN	NaN	NaN	NaN	NaN	0	1
2	2	116	0	NaN	2	NaN	NaN	NaN	0	2	824.666895990958	1	0	NaN	22	NaN	NaN	NaN	NaN	NaN	0.2	1
2	2	117	1	17	1	0.2	0	1	1	1	699.635069991928	2	0	0	1	0	1	6	0.8	1	0	0
2	2	118	0	NaN	1	NaN	NaN	NaN	0.6	1	1119.13468199782	2	0	NaN	2	NaN	NaN	NaN	NaN	NaN	1	1
2	2	119	1	10	1	1	1	1	1	2	1165.50768799789	2	0	1	3	0.6	2	15	0	1	0.6	1
2	2	120	0	NaN	1	NaN	NaN	NaN	0	2	823.080704998574	2	0	NaN	4	NaN	NaN	NaN	NaN	NaN	1	1
2	3	121	1	16	1	0.6	1	1	0.6	1	804.43548799667	2	0	1	5	0	2	11	1	1	0	1
2	3	122	0	NaN	1	NaN	NaN	NaN	0.8	2	935.415212006774	2	0	NaN	6	NaN	NaN	NaN	NaN	NaN	0.6	1
2	3	123	1	11	1	0.2	0	1	0.2	1	1229.39294700336	2	0	0	7	0	1	18	0	1	0.8	1
2	3	124	1	17	1	0.8	1	1	0.4	1	904.235109002911	1	1	0	8	0.2	2	13	0	0	0.2	0
2	3	125	1	10	1	0.2	0	1	0.2	1	1196.75762299448	2	0	0	9	0.4	1	21	0	1	0.4	0
2	3	126	0	NaN	1	NaN	NaN	NaN	0.6	2	777.783714001998	1	1	NaN	10	NaN	NaN	NaN	NaN	NaN	0.2	0
2	3	127	0	NaN	1	NaN	NaN	NaN	0.6	1	819.43102600053	2	0	NaN	11	NaN	NaN	NaN	NaN	NaN	0.6	0
2	3	128	1	10	1	0.6	1	1	0.8	2	601.061374996789	1	1	0	12	0.6	2	2	1	0	0.6	0
2	3	129	0	NaN	1	NaN	NaN	NaN	1	1	603.346395000699	1	1	NaN	13	NaN	NaN	NaN	NaN	NaN	0.8	1
2	3	130	1	10	1	0	1	0	0.6	1	637.364321009954	1	1	0	14	0.6	2	4	1	1	1	1
2	3	131	0	NaN	1	NaN	NaN	NaN	0.4	2	935.786782996729	2	0	NaN	15	NaN	NaN	NaN	NaN	NaN	0.6	0
2	3	132	1	10	1	0.8	1	1	0.8	1	688.753868991625	2	0	1	16	0.4	2	6	0.6	1	0.4	1
2	3	133	1	17	2	0	1	0	0	2	864.318575011566	1	0	1	1	0.6	1	22	0.2	0	0.8	0
2	3	134	1	28	2	0	1	0	0	1	699.988495995058	1	0	1	2	0	1	12	0.6	0	0	1
2	3	135	0	NaN	2	NaN	NaN	NaN	0.4	1	906.066533992998	1	0	NaN	3	NaN	NaN	NaN	NaN	NaN	0	1
2	3	136	1	28	2	0	1	0	0	2	874.393357997178	2	1	0	4	0.4	1	14	0.8	1	0.4	0
2	3	137	1	10	2	0.6	0	0	0.6	1	830.704794992926	2	1	1	5	0	2	11	0.6	1	0	1
2	3	138	0	NaN	2	NaN	NaN	NaN	0.8	1	736.343753989786	2	1	NaN	6	NaN	NaN	NaN	NaN	NaN	0.6	1
2	3	139	0	NaN	2	NaN	NaN	NaN	0.8	1	864.764052996179	2	1	NaN	7	NaN	NaN	NaN	NaN	NaN	0.8	1
2	3	140	1	11	2	1	1	1	1	1	1022.42584399937	2	1	0	8	0.4	1	13	0.8	0	0.8	1
2	3	141	1	10	2	0.4	0	1	0	1	935.56688100216	1	0	0	9	1	2	15	0.6	1	1	0
2	3	142	0	NaN	2	NaN	NaN	NaN	0.2	1	967.779030004749	2	1	NaN	10	NaN	NaN	NaN	NaN	NaN	0	0
2	3	143	0	NaN	2	NaN	NaN	NaN	0.8	2	1084.15525099554	2	1	NaN	11	NaN	NaN	NaN	NaN	NaN	0.2	1
2	3	144	0	NaN	2	NaN	NaN	NaN	0.6	1	934.371620009188	1	0	NaN	12	NaN	NaN	NaN	NaN	NaN	0.8	0
2	3	145	1	10	2	0.4	1	0	0.6	1	1077.90648700029	2	1	0	13	0.6	1	3	0	1	0.6	0
2	3	146	0	NaN	2	NaN	NaN	NaN	0.8	2	1050.7180190034	1	0	NaN	14	NaN	NaN	NaN	NaN	NaN	0.6	0
2	3	147	0	NaN	2	NaN	NaN	NaN	0.4	1	849.234877008712	2	1	NaN	15	NaN	NaN	NaN	NaN	NaN	0.8	0
2	3	148	0	NaN	2	NaN	NaN	NaN	1	2	820.770179008832	2	1	NaN	16	NaN	NaN	NaN	NaN	NaN	0.4	1
2	3	149	0	NaN	2	NaN	NaN	NaN	0.8	2	1030.28265100147	1	0	NaN	17	NaN	NaN	NaN	NaN	NaN	1	0
2	3	150	1	12	2	0.8	0	0	0.8	1	740.57280299894	1	0	0	18	1	2	6	0.6	0	0.8	1
2	3	151	0	NaN	2	NaN	NaN	NaN	0	1	677.759805999813	2	1	NaN	19	NaN	NaN	NaN	NaN	NaN	0.8	0
2	3	152	0	NaN	2	NaN	NaN	NaN	0	2	752.217764995294	1	0	NaN	20	NaN	NaN	NaN	NaN	NaN	0	0
2	3	153	1	27	1	0.6	0	0	0.6	1	694.030829996336	1	1	1	1	0	1	10	0.2	1	0	1
2	3	154	1	12	1	0.2	1	0	0.2	2	682.813036997686	2	0	1	2	0	2	10	0	0	0.6	0
2	3	155	1	11	1	0.6	0	0	0.6	2	923.544682009378	1	1	1	3	0.6	1	12	0.8	1	0.2	0
2	3	156	0	NaN	1	NaN	NaN	NaN	1	2	991.400323007838	1	1	NaN	4	NaN	NaN	NaN	NaN	NaN	0.6	1
2	3	157	1	10	1	0.4	1	0	0.4	2	1163.57790499751	2	0	1	5	0.2	2	15	0.8	0	1	0
2	3	158	0	NaN	1	NaN	NaN	NaN	1	1	1092.48131100321	1	1	NaN	6	NaN	NaN	NaN	NaN	NaN	0.4	0
2	3	159	0	NaN	1	NaN	NaN	NaN	0.4	1	1122.72135600506	2	0	NaN	7	NaN	NaN	NaN	NaN	NaN	1	0
2	3	160	1	12	1	1	1	1	0.4	1	912.723178000306	1	1	0	8	0.4	2	16	0.4	0	0.4	0
2	3	161	1	10	1	0	1	0	1	2	962.773195002228	1	1	0	9	0.4	2	19	0.8	1	0.4	1
2	3	162	0	NaN	1	NaN	NaN	NaN	0.2	2	1139.04257000831	1	1	NaN	10	NaN	NaN	NaN	NaN	NaN	1	1
2	3	163	1	24	1	0.8	1	1	0.8	1	800.879090005765	2	0	1	11	0.4	2	7	0.8	1	0.2	0
2	3	164	1	21	1	0.8	1	1	0.2	1	1111.89992600703	1	1	0	12	0.8	2	11	0.2	0	0.8	0
2	3	165	1	13	1	0	0	1	0	1	994.170461999602	1	1	1	13	0.2	1	20	0	0	0.2	1
2	3	166	0	NaN	1	NaN	NaN	NaN	0.6	1	933.213682001224	1	1	NaN	14	NaN	NaN	NaN	NaN	NaN	0	1
2	3	167	1	18	1	0.8	0	0	0	1	1314.56793799589	2	0	0	15	0.6	1	17	1	0	0.6	0
2	3	168	1	22	1	0.8	0	0	0.8	2	842.816931006382	1	1	1	16	0.6	1	14	0.6	1	0	0
2	3	169	1	13	1	1	0	0	1	1	1222.56520899828	1	1	1	17	0.8	1	4	0.6	1	0.8	1
2	3	170	0	NaN	2	NaN	NaN	NaN	NaN	NaN	NaN	NaN	NaN	NaN	1	NaN	NaN	NaN	NaN	NaN	1	0
2	3	171	1	12	2	0.4	0	1	0.4	1	632.346868005698	2	1	1	2	0	2	7	1	0	NaN	0
2	3	172	1	10	2	0.2	1	0	0.6	1	566.388973995345	2	1	0	3	1	1	10	1	1	0.4	1
2	3	173	0	NaN	2	NaN	NaN	NaN	0.6	1	734.777923993533	2	1	NaN	4	NaN	NaN	NaN	NaN	NaN	0.6	1
2	3	174	0	NaN	2	NaN	NaN	NaN	0.4	2	688.911388002452	1	0	NaN	5	NaN	NaN	NaN	NaN	NaN	0.6	0
2	3	175	0	NaN	2	NaN	NaN	NaN	0	2	731.754829001147	1	0	NaN	6	NaN	NaN	NaN	NaN	NaN	0.4	1
2	3	176	0	NaN	2	NaN	NaN	NaN	0.8	1	729.539810999995	2	1	NaN	7	NaN	NaN	NaN	NaN	NaN	0	0
2	3	177	0	NaN	2	NaN	NaN	NaN	1	1	947.375638992526	1	0	NaN	8	NaN	NaN	NaN	NaN	NaN	0.8	0
2	3	178	0	NaN	2	NaN	NaN	NaN	0.4	2	698.918221998611	1	0	NaN	9	NaN	NaN	NaN	NaN	NaN	1	1
2	3	179	1	13	2	0.6	1	1	1	2	735.468112005037	2	1	0	10	0.4	1	14	0	0	0.4	0
2	3	180	0	NaN	2	NaN	NaN	NaN	1	1	967.826273990795	2	1	NaN	11	NaN	NaN	NaN	NaN	NaN	1	1
2	4	181	0	NaN	2	NaN	NaN	NaN	0	1	713.041210998199	2	1	NaN	12	NaN	NaN	NaN	NaN	NaN	1	1
2	4	182	0	NaN	2	NaN	NaN	NaN	0.6	2	811.082939006155	2	1	NaN	13	NaN	NaN	NaN	NaN	NaN	0	1
2	4	183	0	NaN	2	NaN	NaN	NaN	0.6	1	774.48010801163	1	0	NaN	14	NaN	NaN	NaN	NaN	NaN	0.6	0
2	4	184	0	NaN	2	NaN	NaN	NaN	0.2	1	767.099839998991	1	0	NaN	15	NaN	NaN	NaN	NaN	NaN	0.6	1
2	4	185	1	10	2	0	1	0	0	2	793.587462991127	1	0	1	16	0.2	1	6	0.4	0	0.2	1
2	4	186	1	10	1	0.8	1	1	0.8	1	859.749266994186	1	1	0	1	0.6	2	7	0	0	0	1
2	4	187	0	NaN	1	NaN	NaN	NaN	0.2	2	670.197772997199	2	0	NaN	2	NaN	NaN	NaN	NaN	NaN	0.8	0
2	4	188	1	11	1	1	0	0	0.2	1	878.666123011499	2	0	0	3	0.8	1	8	0.8	0	0.2	1
2	4	189	0	NaN	1	NaN	NaN	NaN	0.2	2	639.90763000038	1	1	NaN	4	NaN	NaN	NaN	NaN	NaN	0.2	0
2	4	190	0	NaN	1	NaN	NaN	NaN	0.6	1	707.053997000912	1	1	NaN	5	NaN	NaN	NaN	NaN	NaN	0.2	1
2	4	191	1	17	1	0.4	0	1	0.4	1	619.551062001847	1	1	1	6	0.6	1	5	0.6	0	0.6	1
2	4	192	0	NaN	1	NaN	NaN	NaN	0.6	2	718.70965200651	2	0	NaN	7	NaN	NaN	NaN	NaN	NaN	0.4	0
2	4	193	0	NaN	1	NaN	NaN	NaN	1	1	762.216171002365	1	1	NaN	8	NaN	NaN	NaN	NaN	NaN	0.6	0
2	4	194	1	10	1	0.2	0	1	0.8	2	837.657859010505	2	0	0	9	1	1	15	0.6	1	1	0
2	4	195	0	NaN	1	NaN	NaN	NaN	0	2	736.764522996964	2	0	NaN	10	NaN	NaN	NaN	NaN	NaN	0.8	1
2	4	196	1	14	1	0.6	1	1	0.8	1	818.312522009364	1	1	0	11	0	2	13	0	0	0	0
2	4	197	1	17	1	1	1	1	1	2	697.516237996751	2	0	1	12	0	2	11	1	1	0.8	0
2	4	198	1	20	1	0.4	0	1	0	1	712.981197997578	2	0	0	13	0.8	1	9	1	1	1	1
2	4	199	1	10	1	0.2	0	1	0.2	1	985.46864099626	1	1	1	14	0.8	1	4	0.2	0	0	0
2	4	200	1	27	1	0.6	1	1	0.6	2	741.319837994524	2	0	1	15	0	2	4	0.6	1	0.2	0
2	4	201	0	NaN	1	NaN	NaN	NaN	1	1	689.479861001018	1	1	NaN	16	NaN	NaN	NaN	NaN	NaN	0.6	0
2	4	202	0	NaN	1	NaN	NaN	NaN	0	2	784.717700997135	1	1	NaN	17	NaN	NaN	NaN	NaN	NaN	1	1
2	4	203	0	NaN	2	NaN	NaN	NaN	0	1	839.231156001915	1	0	NaN	1	NaN	NaN	NaN	NaN	NaN	0	1
2	4	204	1	12	2	0.6	0	0	0.6	2	681.053124993923	2	1	1	2	0.6	2	7	0.4	1	0	0
2	4	205	0	NaN	2	NaN	NaN	NaN	0	1	843.801274997531	1	0	NaN	3	NaN	NaN	NaN	NaN	NaN	0.6	0
2	4	206	0	NaN	2	NaN	NaN	NaN	0.2	2	886.6143799969	1	0	NaN	4	NaN	NaN	NaN	NaN	NaN	0	1
2	4	207	0	NaN	2	NaN	NaN	NaN	0.4	1	727.756323001813	2	1	NaN	5	NaN	NaN	NaN	NaN	NaN	0.2	0
2	4	208	0	NaN	2	NaN	NaN	NaN	1	2	756.332313991152	2	1	NaN	6	NaN	NaN	NaN	NaN	NaN	0.4	1
2	4	209	1	22	2	0.2	0	1	0.8	1	726.112782998825	1	0	0	7	1	2	2	0.8	1	1	0
2	4	210	1	17	2	1	1	1	0.8	2	778.433179992135	2	1	0	8	0.8	1	8	0.6	0	0.8	0
2	4	211	0	NaN	2	NaN	NaN	NaN	0.6	1	656.834342007642	2	1	NaN	9	NaN	NaN	NaN	NaN	NaN	0.8	1
2	4	212	1	29	2	0.6	1	1	0.4	1	990.800545012462	2	1	0	10	0.8	1	14	0.6	0	0.6	1
2	4	213	0	NaN	2	NaN	NaN	NaN	1	1	835.58533800533	2	1	NaN	11	NaN	NaN	NaN	NaN	NaN	0.4	1
2	4	214	0	NaN	2	NaN	NaN	NaN	0.6	2	704.512899988913	2	1	NaN	12	NaN	NaN	NaN	NaN	NaN	1	1
2	4	215	0	NaN	2	NaN	NaN	NaN	0.8	1	586.607219011057	2	1	NaN	13	NaN	NaN	NaN	NaN	NaN	0.6	1
2	4	216	1	10	2	0.2	1	0	1	2	810.315832000924	2	1	0	14	0.8	1	4	0	1	0.8	1
2	4	217	1	15	2	0	1	0	0	1	889.305104996311	1	0	1	15	0.8	1	17	1	0	1	0
2	4	218	0	NaN	2	NaN	NaN	NaN	0.6	2	1039.33320900251	1	0	NaN	16	NaN	NaN	NaN	NaN	NaN	0	1
2	4	219	0	NaN	2	NaN	NaN	NaN	1	2	846.758863001014	1	0	NaN	17	NaN	NaN	NaN	NaN	NaN	0.6	1
2	4	220	0	NaN	2	NaN	NaN	NaN	0.2	2	740.75639199873	1	0	NaN	18	NaN	NaN	NaN	NaN	NaN	1	1
2	4	221	1	10	2	0.6	0	0	0.4	1	821.767510002246	1	0	0	19	1	2	9	0.8	0	0.2	1
2	4	222	1	14	2	1	0	0	1	2	887.727024004562	2	1	1	20	1	2	6	0.4	1	0.4	0
2	4	223	1	18	1	0	0	1	0	1	1150.94656099973	1	1	1	1	0.4	1	3	0.6	0	1	0
2	4	224	0	NaN	1	NaN	NaN	NaN	0.8	2	889.918101995136	1	1	NaN	2	NaN	NaN	NaN	NaN	NaN	0	1
2	4	225	0	NaN	1	NaN	NaN	NaN	0.8	1	1080.97006598837	1	1	NaN	3	NaN	NaN	NaN	NaN	NaN	0.8	1
2	4	226	0	NaN	1	NaN	NaN	NaN	0	1	671.153367991792	2	0	NaN	4	NaN	NaN	NaN	NaN	NaN	0.8	0
2	4	227	1	13	1	0.6	1	1	1	2	1057.2892880009	1	1	0	5	0	2	12	1	0	0	0
2	4	228	1	25	1	0	0	1	0	1	887.723495005048	2	0	0	6	1	1	1	0	1	1	0
2	4	229	1	14	1	0.8	1	1	1	2	863.361363997683	1	1	0	7	0	2	13	0.6	0	0	0
2	4	230	0	NaN	1	NaN	NaN	NaN	0.4	1	869.870748996618	2	0	NaN	8	NaN	NaN	NaN	NaN	NaN	1	0
2	4	231	0	NaN	1	NaN	NaN	NaN	0	2	700.246495005558	2	0	NaN	9	NaN	NaN	NaN	NaN	NaN	0.4	1
2	4	232	1	12	1	0.2	0	1	0.4	2	1093.04963100294	2	0	0	10	1	1	18	1	1	0	1
2	4	233	0	NaN	1	NaN	NaN	NaN	0.8	2	783.441064006183	1	1	NaN	11	NaN	NaN	NaN	NaN	NaN	0.4	0
2	4	234	0	NaN	1	NaN	NaN	NaN	1	1	816.782893991331	1	1	NaN	12	NaN	NaN	NaN	NaN	NaN	0.8	1
2	4	235	0	NaN	1	NaN	NaN	NaN	0.6	1	602.592730996548	1	1	NaN	13	NaN	NaN	NaN	NaN	NaN	1	1
2	4	236	1	23	1	1	1	1	0.6	2	772.246391992667	1	1	0	14	0.4	2	11	0.4	0	0.6	1
2	4	237	1	11	1	0	1	0	0.8	1	644.217690001824	1	1	0	15	0.4	2	4	0.8	1	0.6	1
2	4	238	1	20	1	0.6	0	0	0.2	2	724.796415001038	2	0	0	16	0.8	1	16	0	0	0.8	0
2	4	239	1	20	1	1	0	0	1	1	567.186215004767	1	1	1	17	0.8	1	17	0.6	1	0.2	0
2	4	240	1	15	1	0.8	0	0	0.8	2	773.766540005454	1	1	1	18	1	1	3	0.8	1	1	1
2	5	241	1	11	2	0.4	0	1	0.4	1	956.315842006006	2	1	1	1	0.2	2	8	1	0	0.8	0
2	5	242	1	18	2	0.8	1	1	0.4	1	918.606699997326	2	1	0	2	0.8	1	2	0	0	0.4	1
2	5	243	0	NaN	2	NaN	NaN	NaN	0.6	2	745.549504994415	1	0	NaN	3	NaN	NaN	NaN	NaN	NaN	0.4	0
2	5	244	1	13	2	0	0	1	0	1	618.289029996959	2	1	1	4	0.4	2	9	0.4	0	0.6	0
2	5	245	1	11	2	1	1	1	0.2	2	869.760506990133	2	1	0	5	0.6	1	12	0.8	0	0	1
2	5	246	0	NaN	2	NaN	NaN	NaN	0.6	2	792.803207004908	1	0	NaN	6	NaN	NaN	NaN	NaN	NaN	0.2	0
2	5	247	1	12	2	0.6	1	1	0.6	1	704.308027998195	1	0	1	7	0.6	1	13	1	1	0.6	1
2	5	248	0	NaN	2	NaN	NaN	NaN	0.4	2	928.022403008072	1	0	NaN	8	NaN	NaN	NaN	NaN	NaN	0.6	1
2	5	249	0	NaN	2	NaN	NaN	NaN	0.6	1	702.377705005347	1	0	NaN	9	NaN	NaN	NaN	NaN	NaN	0.4	1
2	5	250	0	NaN	2	NaN	NaN	NaN	0.2	2	1269.37628800806	1	0	NaN	10	NaN	NaN	NaN	NaN	NaN	0.6	1
2	5	251	0	NaN	2	NaN	NaN	NaN	0.6	1	757.869779001339	1	0	NaN	11	NaN	NaN	NaN	NaN	NaN	0.2	1
2	5	252	0	NaN	2	NaN	NaN	NaN	0.6	2	959.773820999544	2	1	NaN	12	NaN	NaN	NaN	NaN	NaN	0.6	0
2	5	253	1	20	2	0.8	1	1	0.8	1	746.363486003247	1	0	1	13	0.6	1	11	0.4	1	0.6	0
2	5	254	0	NaN	2	NaN	NaN	NaN	1	2	772.026388993254	2	1	NaN	14	NaN	NaN	NaN	NaN	NaN	0.8	0
2	5	255	0	NaN	2	NaN	NaN	NaN	1	1	720.233767991886	2	1	NaN	15	NaN	NaN	NaN	NaN	NaN	1	1
2	5	256	0	NaN	2	NaN	NaN	NaN	0.2	2	925.300105998758	1	0	NaN	16	NaN	NaN	NaN	NaN	NaN	1	0
2	5	257	0	NaN	2	NaN	NaN	NaN	1	1	715.834349000943	2	1	NaN	17	NaN	NaN	NaN	NaN	NaN	0.2	0
2	5	258	1	10	1	0.4	0	1	0.2	1	956.217858998571	2	0	0	1	0.2	1	8	0.6	1	1	1
2	5	259	1	16	1	0.6	0	0	0.6	2	919.769839005312	1	1	1	2	0.2	1	3	0.4	1	0.2	0
2	5	260	0	NaN	1	NaN	NaN	NaN	0.8	1	844.586740990053	1	1	NaN	3	NaN	NaN	NaN	NaN	NaN	0.6	1
2	5	261	1	11	1	0.2	0	1	0.2	2	772.818455996457	1	1	1	4	0.8	1	10	0.6	0	0.8	1
2	5	262	0	NaN	1	NaN	NaN	NaN	0	1	820.834640006069	2	0	NaN	5	NaN	NaN	NaN	NaN	NaN	0.2	0
2	5	263	0	NaN	1	NaN	NaN	NaN	0.2	2	1350.28601701197	2	0	NaN	6	NaN	NaN	NaN	NaN	NaN	0	1
2	5	264	0	NaN	1	NaN	NaN	NaN	0	1	495.24659999588	2	0	NaN	7	NaN	NaN	NaN	NaN	NaN	0.2	1
2	5	265	1	10	1	1	1	1	1	1	878.919459995814	1	1	0	8	0	2	15	1	0	0	0
2	5	266	0	NaN	1	NaN	NaN	NaN	0.4	2	1028.74831600639	1	1	NaN	9	NaN	NaN	NaN	NaN	NaN	1	1
2	5	267	1	11	1	0.2	0	1	0.2	2	605.231123001431	1	1	1	10	0.4	1	16	1	0	0.4	1
2	5	268	1	19	1	0.6	0	0	0.6	1	1046.72223200032	1	1	1	11	0.2	1	9	0.4	1	0.2	1
2	5	269	0	NaN	1	NaN	NaN	NaN	0	2	1159.31664900563	1	1	NaN	12	NaN	NaN	NaN	NaN	NaN	0.6	1
2	5	270	0	NaN	1	NaN	NaN	NaN	0.4	2	1020.78372699907	1	1	NaN	13	NaN	NaN	NaN	NaN	NaN	0	1
2	5	271	0	NaN	1	NaN	NaN	NaN	0.2	1	813.959457009332	2	0	NaN	14	NaN	NaN	NaN	NaN	NaN	0.4	0
2	5	272	1	20	1	0.6	1	1	0.6	2	1327.23661500495	1	1	0	15	0.2	2	12	0.6	0	0.2	0
2	5	273	1	16	1	1	1	1	0.8	1	750.915751006687	1	1	0	16	0.2	2	17	0.2	0	0.6	1
2	5	274	1	20	1	1	1	1	1	2	729.876954006613	2	0	1	17	0.2	2	14	0.8	1	0.8	0
2	5	275	0	NaN	1	NaN	NaN	NaN	0	1	858.536649000598	2	0	NaN	18	NaN	NaN	NaN	NaN	NaN	1	1
2	5	276	1	10	1	0.4	0	1	0.4	2	602.482308997423	1	1	1	19	0.8	1	9	1	0	0	0
2	5	277	0	NaN	1	NaN	NaN	NaN	0.4	1	718.590548000066	2	0	NaN	20	NaN	NaN	NaN	NaN	NaN	0.4	0
2	5	278	0	NaN	1	NaN	NaN	NaN	0	1	1027.48513800907	2	0	NaN	21	NaN	NaN	NaN	NaN	NaN	0.4	1
2	5	279	1	10	1	0	0	1	0	1	863.760765001643	1	1	1	22	0.4	1	12	0.6	0	0	0
2	5	280	1	10	1	0.4	0	1	0.4	1	867.844049993437	2	0	0	23	0	1	13	0	1	0	0
2	5	281	0	NaN	2	NaN	NaN	NaN	0.2	1	1220.75739600405	1	0	NaN	1	NaN	NaN	NaN	NaN	NaN	0.4	0
2	5	282	0	NaN	2	NaN	NaN	NaN	0	2	1015.17294900259	1	0	NaN	2	NaN	NaN	NaN	NaN	NaN	0.2	1
2	5	283	1	19	2	0	0	1	0.6	1	1048.91328701342	1	0	0	3	0.4	2	7	0.2	1	0	1
2	5	284	0	NaN	2	NaN	NaN	NaN	1	2	974.918788997456	2	1	NaN	4	NaN	NaN	NaN	NaN	NaN	0.6	0
2	5	285	0	NaN	2	NaN	NaN	NaN	0.6	1	872.198087003198	1	0	NaN	5	NaN	NaN	NaN	NaN	NaN	1	0
2	5	286	0	NaN	2	NaN	NaN	NaN	0.2	2	981.097028998192	2	1	NaN	6	NaN	NaN	NaN	NaN	NaN	0.6	0
2	5	287	1	16	2	0.2	0	1	0.2	1	823.770428003627	2	1	1	7	0.2	2	14	0.4	0	0.2	1
2	5	288	0	NaN	2	NaN	NaN	NaN	0.2	1	1031.83904899925	1	0	NaN	8	NaN	NaN	NaN	NaN	NaN	0.2	0
2	5	289	1	12	2	0.4	0	1	0.4	2	846.487254995736	2	1	1	9	0.2	2	20	0.4	0	0.2	0
2	5	290	0	NaN	2	NaN	NaN	NaN	0.6	2	994.325553998351	2	1	NaN	10	NaN	NaN	NaN	NaN	NaN	0.4	1
2	5	291	1	10	2	0.2	1	0	0.4	1	1021.53078099946	2	1	0	11	0.2	1	1	0.4	1	0.6	1
2	5	292	0	NaN	2	NaN	NaN	NaN	0	2	1201.2989299983	1	0	NaN	12	NaN	NaN	NaN	NaN	NaN	0.4	0
2	5	293	0	NaN	2	NaN	NaN	NaN	0.4	1	425.796262003132	1	0	NaN	13	NaN	NaN	NaN	NaN	NaN	0	1
2	5	294	1	12	2	0	1	0	0	2	865.06396799814	1	0	1	14	0.4	1	2	0.2	0	0.4	1
2	5	295	0	NaN	2	NaN	NaN	NaN	1	1	939.757172993268	2	1	NaN	15	NaN	NaN	NaN	NaN	NaN	0	0
2	5	296	0	NaN	2	NaN	NaN	NaN	0.6	1	975.452682003379	1	0	NaN	16	NaN	NaN	NaN	NaN	NaN	1	0
2	5	297	0	NaN	2	NaN	NaN	NaN	0.2	1	1108.40130799625	1	0	NaN	17	NaN	NaN	NaN	NaN	NaN	0.6	1
2	5	298	1	10	2	0.2	1	0	0.6	1	1012.94327199867	2	1	0	18	0.2	1	8	0.2	1	0.2	0
2	5	299	1	15	2	1	0	0	1	1	965.357906999998	2	1	1	19	0.6	2	4	0.6	1	0.6	1
2	5	300	1	10	1	0.6	1	1	0.6	1	1354.83868099982	2	0	1	1	1	2	10	0.4	1	1	1
4	1	1	0	NaN	1	NaN	NaN	NaN	0.6	2	898.403398983646	1	1	NaN	1	NaN	NaN	NaN	NaN	NaN	NaN	NaN
4	1	2	0	NaN	1	NaN	NaN	NaN	0.2	2	1007.62136100093	1	1	NaN	2	NaN	NaN	NaN	NaN	NaN	0.6	1
4	1	3	0	NaN	1	NaN	NaN	NaN	1	1	874.275342008332	1	1	NaN	3	NaN	NaN	NaN	NaN	NaN	0.2	1
4	1	4	0	NaN	1	NaN	NaN	NaN	0.4	1	501.975090010092	1	1	NaN	4	NaN	NaN	NaN	NaN	NaN	1	1
4	1	5	0	NaN	1	NaN	NaN	NaN	0.4	2	561.087710986612	1	1	NaN	5	NaN	NaN	NaN	NaN	NaN	0.4	1
4	1	6	0	NaN	1	NaN	NaN	NaN	1	1	695.570137992036	1	1	NaN	6	NaN	NaN	NaN	NaN	NaN	0.4	1
4	1	7	0	NaN	1	NaN	NaN	NaN	0.8	1	723.400963994209	1	1	NaN	7	NaN	NaN	NaN	NaN	NaN	1	1
4	1	8	0	NaN	1	NaN	NaN	NaN	0.8	2	807.915045996197	1	1	NaN	8	NaN	NaN	NaN	NaN	NaN	0.8	1
4	1	9	0	NaN	1	NaN	NaN	NaN	0.6	1	712.839201005409	1	1	NaN	9	NaN	NaN	NaN	NaN	NaN	0.8	1
4	1	10	0	NaN	1	NaN	NaN	NaN	1	1	920.408234989736	1	1	NaN	10	NaN	NaN	NaN	NaN	NaN	0.6	1
4	1	11	0	NaN	1	NaN	NaN	NaN	0.8	2	746.61928700516	1	1	NaN	11	NaN	NaN	NaN	NaN	NaN	1	1
4	1	12	1	10	1	0.2	0	1	0.2	1	969.181819004007	1	1	1	12	0.8	1	2	0.6	0	0.8	1
4	1	13	0	NaN	1	NaN	NaN	NaN	0	2	831.561668979703	1	1	NaN	13	NaN	NaN	NaN	NaN	NaN	0.2	1
4	1	14	1	10	1	0.4	0	1	0.4	1	801.518538006349	1	1	1	14	0	1	4	1	0	0	1
4	1	15	1	10	1	0.4	0	1	0.4	2	787.71255700849	1	1	1	15	0.4	1	5	0.4	0	0.4	1
4	1	16	1	10	1	1	0	0	1	1	1112.74237197358	1	1	1	16	0.4	1	6	0.4	1	0.4	1
4	1	17	1	14	2	1	1	1	1	1	816.671567998128	1	0	1	1	1	1	3	0.2	1	1	1
4	1	18	1	17	2	0.6	1	1	0.6	1	908.759526995709	1	0	1	2	1	1	1	0.6	1	1	1
4	1	19	1	10	2	0.6	1	1	0.6	2	744.299814017722	1	0	1	3	0.6	1	9	0.8	1	0.6	1
4	1	20	0	NaN	2	NaN	NaN	NaN	1	1	868.604626972228	2	1	NaN	4	NaN	NaN	NaN	NaN	NaN	0.6	0
4	1	21	0	NaN	2	NaN	NaN	NaN	0.4	1	805.528221011627	1	0	NaN	5	NaN	NaN	NaN	NaN	NaN	1	0
4	1	22	0	NaN	2	NaN	NaN	NaN	0.2	2	985.333935997915	1	0	NaN	6	NaN	NaN	NaN	NaN	NaN	0.4	1
4	1	23	1	10	2	0	1	0	0.8	2	869.771421013866	2	1	0	7	0.2	1	13	0.2	1	0.2	0
4	1	24	0	NaN	2	NaN	NaN	NaN	0.4	1	730.91953099356	1	0	NaN	8	NaN	NaN	NaN	NaN	NaN	0.8	0
4	1	25	0	NaN	2	NaN	NaN	NaN	1	1	1106.73354900791	2	1	NaN	9	NaN	NaN	NaN	NaN	NaN	0.4	0
4	1	26	0	NaN	2	NaN	NaN	NaN	0.2	1	835.245253983885	1	0	NaN	10	NaN	NaN	NaN	NaN	NaN	1	0
4	1	27	0	NaN	2	NaN	NaN	NaN	0.8	2	973.579849989619	2	1	NaN	11	NaN	NaN	NaN	NaN	NaN	0.2	0
4	1	28	1	21	2	0.8	1	1	0.8	2	973.29865800566	1	0	1	12	0.2	1	7	1	1	0.8	0
4	1	29	1	21	2	0.8	1	1	0.8	2	849.510820000432	1	0	1	13	0.8	1	8	0.8	1	0.8	1
4	1	30	0	NaN	2	NaN	NaN	NaN	0.4	1	844.359921000432	1	0	NaN	14	NaN	NaN	NaN	NaN	NaN	0.8	1
4	1	31	1	10	2	0.4	1	0	0.4	2	685.404225980164	1	0	1	15	0.4	1	5	1	0	0.4	1
4	1	32	1	10	2	0.2	1	0	0.6	2	924.576349993004	2	1	0	16	0.4	1	6	0.4	1	0.4	0
4	1	33	0	NaN	2	NaN	NaN	NaN	0	1	790.91708100168	1	0	NaN	17	NaN	NaN	NaN	NaN	NaN	0.6	0
4	1	34	1	10	2	0.4	1	0	1	2	891.77388799726	2	1	0	18	0	1	8	0.8	1	0	0
4	1	35	1	10	2	1	0	0	1	1	718.781505973311	2	1	1	19	1	2	9	0.4	1	1	1
4	1	36	1	10	2	0.2	1	0	0.2	1	1089.38635699451	1	0	1	20	0	1	10	1	0	1	0
4	1	37	0	NaN	2	NaN	NaN	NaN	0.8	2	672.120186005486	2	1	NaN	21	NaN	NaN	NaN	NaN	NaN	0.2	0
4	1	38	1	11	1	0.8	1	1	0.8	2	805.660529003944	2	0	1	1	0.8	2	11	0.2	1	0.8	1
4	1	39	0	NaN	1	NaN	NaN	NaN	1	1	769.320828985656	2	0	NaN	2	NaN	NaN	NaN	NaN	NaN	0.8	1
4	1	40	0	NaN	1	NaN	NaN	NaN	1	1	918.276620999677	2	0	NaN	3	NaN	NaN	NaN	NaN	NaN	1	1
4	1	41	1	11	1	0.4	0	1	0.4	2	842.558425007155	1	1	1	4	0.2	1	14	0.8	0	1	0
4	1	42	0	NaN	1	NaN	NaN	NaN	0	1	887.90781100397	1	1	NaN	5	NaN	NaN	NaN	NaN	NaN	0.4	1
4	1	43	0	NaN	1	NaN	NaN	NaN	0	1	1090.26691500912	2	0	NaN	6	NaN	NaN	NaN	NaN	NaN	0	0
4	1	44	0	NaN	1	NaN	NaN	NaN	0.6	1	728.794894996099	1	1	NaN	7	NaN	NaN	NaN	NaN	NaN	0	0
4	1	45	0	NaN	1	NaN	NaN	NaN	0	1	849.112019990571	2	0	NaN	8	NaN	NaN	NaN	NaN	NaN	0.6	0
4	1	46	0	NaN	1	NaN	NaN	NaN	1	1	1184.31738301297	1	1	NaN	9	NaN	NaN	NaN	NaN	NaN	0	0
4	1	47	0	NaN	1	NaN	NaN	NaN	0	2	885.174738999922	2	0	NaN	10	NaN	NaN	NaN	NaN	NaN	1	0
4	1	48	0	NaN	1	NaN	NaN	NaN	0.6	2	885.250974999508	1	1	NaN	11	NaN	NaN	NaN	NaN	NaN	0	0
4	1	49	0	NaN	1	NaN	NaN	NaN	0.6	1	1274.60098499432	2	0	NaN	12	NaN	NaN	NaN	NaN	NaN	0.6	0
4	1	50	0	NaN	1	NaN	NaN	NaN	0.4	2	763.575158984168	1	1	NaN	13	NaN	NaN	NaN	NaN	NaN	0.6	0
4	1	51	0	NaN	1	NaN	NaN	NaN	0.2	1	684.137217001989	2	0	NaN	14	NaN	NaN	NaN	NaN	NaN	0.4	0
4	1	52	0	NaN	1	NaN	NaN	NaN	1	1	759.777402010513	1	1	NaN	15	NaN	NaN	NaN	NaN	NaN	0.2	0
4	1	53	0	NaN	1	NaN	NaN	NaN	0.4	2	881.520249997266	2	0	NaN	16	NaN	NaN	NaN	NaN	NaN	1	0
4	1	54	0	NaN	1	NaN	NaN	NaN	0.2	1	628.718060004758	1	1	NaN	17	NaN	NaN	NaN	NaN	NaN	0.4	0
4	1	55	1	13	2	0	1	0	0	2	976.816306007095	2	1	0	1	0.2	1	5	0.4	1	0.2	0
4	1	56	0	NaN	2	NaN	NaN	NaN	0.8	1	891.785943007562	2	1	NaN	2	NaN	NaN	NaN	NaN	NaN	0	1
4	1	57	1	24	2	0	1	0	0	1	880.012980982428	1	0	1	3	0.2	1	17	0.6	0	0.8	0
4	1	58	1	18	2	1	0	0	1	2	774.548670015065	2	1	1	4	0.8	2	3	1	1	0	0
4	1	59	0	NaN	2	NaN	NaN	NaN	0.4	2	826.844605995575	1	0	NaN	5	NaN	NaN	NaN	NaN	NaN	1	0
4	1	60	1	10	2	0.4	1	0	0.4	1	947.881919011706	2	1	0	6	0.4	1	13	0.6	1	0.4	0
4	2	61	1	12	2	0.6	0	0	0.6	1	939.254366006935	2	1	1	7	0.4	2	12	0.6	1	0.4	1
4	2	62	1	25	2	0.8	0	0	0.8	2	672.138207999524	2	1	1	8	0.6	2	21	0.2	1	0.6	1
4	2	63	1	24	2	1	0	0	1	1	682.905898982426	2	1	1	9	0.8	2	2	0.8	1	0.8	1
4	2	64	0	NaN	2	NaN	NaN	NaN	0.6	2	712.606196000706	1	0	NaN	10	NaN	NaN	NaN	NaN	NaN	1	0
4	2	65	0	NaN	2	NaN	NaN	NaN	1	2	709.988118003821	2	1	NaN	11	NaN	NaN	NaN	NaN	NaN	0.6	0
4	2	66	1	12	2	0.2	1	0	0.2	1	767.390184017131	1	0	1	12	0.6	1	17	0.4	0	1	0
4	2	67	0	NaN	2	NaN	NaN	NaN	0.8	2	726.091944990912	2	1	NaN	13	NaN	NaN	NaN	NaN	NaN	0.2	0
4	2	68	0	NaN	2	NaN	NaN	NaN	0.8	2	941.570327995578	2	1	NaN	14	NaN	NaN	NaN	NaN	NaN	0.8	1
4	2	69	0	NaN	2	NaN	NaN	NaN	0.6	1	854.764741001418	1	0	NaN	15	NaN	NaN	NaN	NaN	NaN	0.8	0
4	2	70	1	11	2	0.4	1	0	0.4	1	714.102155994624	1	0	1	16	0.6	1	5	1	0	0.6	1
4	2	71	0	NaN	1	NaN	NaN	NaN	0.2	2	929.494533978868	2	0	NaN	1	NaN	NaN	NaN	NaN	NaN	0.4	0
4	2	72	1	16	1	0.8	1	1	0.8	2	772.89165899856	2	0	1	2	0.2	2	2	0	1	0.2	1
4	2	73	0	NaN	1	NaN	NaN	NaN	1	1	782.402768993052	2	0	NaN	3	NaN	NaN	NaN	NaN	NaN	0.8	1
4	2	74	0	NaN	1	NaN	NaN	NaN	0.2	2	777.400043996749	1	1	NaN	4	NaN	NaN	NaN	NaN	NaN	1	0
4	2	75	1	28	1	0	1	0	0	2	1028.33816001657	2	0	1	5	1	2	10	1	0	0.2	0
4	2	76	1	25	1	0.2	1	0	0.2	2	899.568300985266	2	0	1	6	0	2	14	0.4	0	0	1
4	2	77	1	24	1	0.4	1	0	0.4	1	898.299958003918	2	0	1	7	0.2	2	16	1	0	0.2	1
4	2	78	1	14	1	0.6	0	0	0.6	2	1303.44872898422	2	0	0	8	0.2	1	10	1	0	0.4	1
4	2	79	1	10	1	0.6	0	0	0.6	1	746.01991000236	1	1	1	9	0.2	1	15	0.8	1	0.6	0
4	2	80	1	28	1	1	0	0	0	1	674.238888983382	2	0	0	10	0.6	1	15	0.2	0	0.6	0
4	2	81	0	NaN	1	NaN	NaN	NaN	0.4	2	1020.21496498492	2	0	NaN	11	NaN	NaN	NaN	NaN	NaN	0	1
4	2	82	1	14	1	0.8	1	1	0.8	1	794.81062098057	2	0	1	12	0.4	2	14	0.8	1	0.4	1
4	2	83	1	16	1	0.8	1	1	0.8	1	803.50480900961	2	0	1	13	0.8	2	13	0.2	1	0.8	1
4	2	84	0	NaN	1	NaN	NaN	NaN	0.6	2	976.714788994286	1	1	NaN	14	NaN	NaN	NaN	NaN	NaN	0.8	0
4	2	85	0	NaN	1	NaN	NaN	NaN	0.4	1	748.584877990652	1	1	NaN	15	NaN	NaN	NaN	NaN	NaN	0.6	1
4	2	86	1	12	1	0.2	0	1	0.2	1	1034.13361500134	1	1	1	16	0.4	1	4	1	0	0.4	1
4	2	87	1	22	2	1	0	0	1	2	603.134131990373	2	1	1	1	0.8	2	11	0.6	1	0.2	0
4	2	88	1	15	2	1	0	0	1	2	564.968552003847	2	1	1	2	1	2	3	0.8	1	1	1
4	2	89	0	NaN	2	NaN	NaN	NaN	0.8	2	971.300059987698	2	1	NaN	3	NaN	NaN	NaN	NaN	NaN	1	1
4	2	90	0	NaN	2	NaN	NaN	NaN	0.8	1	1037.21556600067	2	1	NaN	4	NaN	NaN	NaN	NaN	NaN	0.8	1
4	2	91	0	NaN	2	NaN	NaN	NaN	0	1	720.064741006354	1	0	NaN	5	NaN	NaN	NaN	NaN	NaN	0.8	0
4	2	92	0	NaN	2	NaN	NaN	NaN	0.6	2	1365.24161798297	2	1	NaN	6	NaN	NaN	NaN	NaN	NaN	0	0
4	2	93	0	NaN	2	NaN	NaN	NaN	1	2	938.921007997124	1	0	NaN	7	NaN	NaN	NaN	NaN	NaN	0.6	0
4	2	94	1	23	2	0.2	0	1	0	1	776.282951992471	1	0	0	8	0.6	2	1	0.4	1	1	1
4	2	95	1	10	2	0.4	1	0	0.4	1	940.303957992001	1	0	1	9	0	1	15	0.6	0	0	1
4	2	96	1	15	2	0.4	0	1	0.4	2	630.094790976727	2	1	1	10	0.6	2	11	0	0	0.4	0
4	2	97	0	NaN	2	NaN	NaN	NaN	0.2	1	719.859289994929	1	0	NaN	11	NaN	NaN	NaN	NaN	NaN	0.4	0
4	2	98	0	NaN	2	NaN	NaN	NaN	1	2	782.481703005033	2	1	NaN	12	NaN	NaN	NaN	NaN	NaN	0.2	0
4	2	99	1	10	2	0.8	0	0	0.6	1	923.931108001852	1	0	0	13	1	2	3	1	0	1	0
4	2	100	0	NaN	2	NaN	NaN	NaN	0.6	2	951.940409984672	1	0	NaN	14	NaN	NaN	NaN	NaN	NaN	0.6	1
4	2	101	1	10	2	0	1	0	0	2	724.309159995755	1	0	1	15	0.6	1	5	0.8	0	0.6	1
4	2	102	1	10	2	0.6	0	0	0.6	2	875.581086991588	2	1	1	16	1	2	6	0	1	0	0
4	2	103	0	NaN	2	NaN	NaN	NaN	0.2	1	675.752687006025	1	0	NaN	17	NaN	NaN	NaN	NaN	NaN	0.6	0
4	2	104	1	14	2	0.8	0	0	0.8	2	830.410864989972	2	1	1	18	0.6	2	4	0.8	1	0.2	0
4	2	105	0	NaN	2	NaN	NaN	NaN	0.4	1	937.763222987996	1	0	NaN	19	NaN	NaN	NaN	NaN	NaN	0.8	0
4	2	106	0	NaN	2	NaN	NaN	NaN	0	2	694.004115008283	2	1	NaN	20	NaN	NaN	NaN	NaN	NaN	0.4	0
4	2	107	1	10	2	0.2	1	0	0.2	1	1055.75771900476	1	0	1	21	0.4	1	11	0.4	0	0	0
4	2	108	0	NaN	2	NaN	NaN	NaN	0.2	1	969.921579991933	2	1	NaN	22	NaN	NaN	NaN	NaN	NaN	0.2	0
4	2	109	1	11	2	1	0	0	1	2	955.086908012163	2	1	1	23	0.2	2	12	0.2	1	0.2	1
4	2	110	1	26	2	0.6	1	1	0.8	1	645.301437994931	2	1	0	24	0.2	1	14	0.8	0	1	1
4	2	111	1	11	1	0.6	0	0	0.6	2	1331.79167099297	1	1	1	1	0.2	1	14	0.6	1	0.8	0
4	2	112	0	NaN	1	NaN	NaN	NaN	0	1	NaN	2	0	NaN	2	NaN	NaN	NaN	NaN	NaN	0.6	0
4	2	113	1	10	1	0.2	0	1	0.2	1	798.384832014563	1	1	1	3	0.6	1	17	0.6	0	0	0
4	2	114	0	NaN	1	NaN	NaN	NaN	0.2	2	853.357780986698	2	0	NaN	4	NaN	NaN	NaN	NaN	NaN	0.2	0
4	2	115	1	10	1	0.4	0	1	0.4	2	813.378004997503	1	1	1	5	0.2	1	19	0.8	0	0.2	0
4	2	116	0	NaN	1	NaN	NaN	NaN	0	1	786.6502450197	2	0	NaN	6	NaN	NaN	NaN	NaN	NaN	0.4	0
4	2	117	0	NaN	1	NaN	NaN	NaN	0.8	2	715.815379022388	1	1	NaN	7	NaN	NaN	NaN	NaN	NaN	0	0
4	2	118	0	NaN	1	NaN	NaN	NaN	0.6	2	642.729059996782	1	1	NaN	8	NaN	NaN	NaN	NaN	NaN	0.8	1
4	2	119	1	13	1	0	1	0	0.2	1	806.756086996756	1	1	0	9	0	2	20	0.4	1	0.6	1
4	2	120	1	12	1	0.2	1	0	0.2	1	791.752030985663	2	0	1	10	0	2	22	0.2	0	0.2	0
4	3	121	0	NaN	1	NaN	NaN	NaN	0.8	2	810.047571983887	2	0	NaN	11	NaN	NaN	NaN	NaN	NaN	0.2	1
4	3	122	0	NaN	1	NaN	NaN	NaN	1	1	952.10675400449	1	1	NaN	12	NaN	NaN	NaN	NaN	NaN	0.8	0
4	3	123	0	NaN	1	NaN	NaN	NaN	0.6	1	746.850450988859	2	0	NaN	13	NaN	NaN	NaN	NaN	NaN	1	0
4	3	124	0	NaN	1	NaN	NaN	NaN	0.6	2	819.513686990831	1	1	NaN	14	NaN	NaN	NaN	NaN	NaN	0.6	0
4	3	125	1	13	1	0	1	0	0	2	844.713964994298	2	0	1	15	0.6	2	2	0.6	0	0.6	0
4	3	126	0	NaN	1	NaN	NaN	NaN	1	1	685.352492000675	2	0	NaN	16	NaN	NaN	NaN	NaN	NaN	0	1
4	3	127	1	11	1	0	1	0	0	2	617.898465017788	2	0	1	17	1	2	6	0.4	0	1	1
4	3	128	1	14	1	0.2	1	0	0.2	1	655.52249798202	2	0	1	18	0	2	4	0.2	0	0	1
4	3	129	1	12	1	0.8	0	0	0.8	1	925.484609004343	1	1	1	19	0.6	1	7	0	1	0.2	0
4	3	130	0	NaN	1	NaN	NaN	NaN	0.6	1	759.858813020401	2	0	NaN	20	NaN	NaN	NaN	NaN	NaN	0.8	0
4	3	131	1	10	2	0.8	0	0	0.8	1	739.258040004643	2	1	1	1	0.6	2	11	0.2	1	0.6	1
4	3	132	0	NaN	2	NaN	NaN	NaN	0.8	1	803.757432004204	1	0	NaN	2	NaN	NaN	NaN	NaN	NaN	0.8	0
4	3	133	0	NaN	2	NaN	NaN	NaN	0.4	2	1095.36640398437	1	0	NaN	3	NaN	NaN	NaN	NaN	NaN	0.8	1
4	3	134	0	NaN	2	NaN	NaN	NaN	0.4	1	736.007188999793	1	0	NaN	4	NaN	NaN	NaN	NaN	NaN	0.4	1
4	3	135	0	NaN	2	NaN	NaN	NaN	0.2	1	1121.32147100056	1	0	NaN	5	NaN	NaN	NaN	NaN	NaN	0.4	1
4	3	136	1	13	2	0.6	0	0	0.2	2	888.123560987879	1	0	0	6	0.8	2	13	1	0	0.2	1
4	3	137	1	11	2	1	0	0	1	1	642.289501003688	2	1	1	7	0.8	2	16	0	1	0.2	0
4	3	138	0	NaN	2	NaN	NaN	NaN	0.8	1	582.53659697948	2	1	NaN	8	NaN	NaN	NaN	NaN	NaN	1	1
4	3	139	1	15	2	0.6	1	1	0.8	1	517.765743017662	2	1	0	9	0.2	1	14	0.6	0	0.8	1
4	3	140	1	10	2	0.6	0	0	0.6	2	796.36050699628	2	1	1	10	0.8	2	20	0.8	1	0.8	1
4	3	141	1	23	2	0.6	1	1	0.6	2	1022.18092299881	1	0	1	11	0.2	1	8	0.8	1	0.6	0
4	3	142	0	NaN	2	NaN	NaN	NaN	0	2	819.814249989577	1	0	NaN	12	NaN	NaN	NaN	NaN	NaN	0.6	1
4	3	143	0	NaN	2	NaN	NaN	NaN	1	1	532.324248022633	1	0	NaN	13	NaN	NaN	NaN	NaN	NaN	0	1
4	3	144	1	10	2	0.4	1	0	0.8	2	676.726673991652	2	1	0	14	1	1	4	0.4	1	1	0
4	3	145	1	10	2	0.2	1	0	0.2	2	1133.398408012	1	0	1	15	1	1	5	0.4	0	0.8	0
4	3	146	1	13	2	0.4	1	0	0.4	2	630.88488401263	1	0	1	16	0.2	1	3	0.8	0	0.2	1
4	3	147	1	15	2	0.8	1	1	0.2	1	842.902390984818	2	1	0	17	0.4	1	2	0.8	0	0.4	0
4	3	148	0	NaN	2	NaN	NaN	NaN	0.6	2	612.789915991016	2	1	NaN	18	NaN	NaN	NaN	NaN	NaN	0.2	1
4	3	149	1	11	2	0.8	0	0	0	1	758.133279974572	1	0	0	19	0.6	2	8	1	0	0.6	0
4	3	150	0	NaN	1	NaN	NaN	NaN	0.6	2	798.044129973277	1	1	NaN	1	NaN	NaN	NaN	NaN	NaN	0	1
4	3	151	0	NaN	1	NaN	NaN	NaN	0.2	1	793.832686002133	2	0	NaN	2	NaN	NaN	NaN	NaN	NaN	0.6	0
4	3	152	0	NaN	1	NaN	NaN	NaN	0.4	2	1017.08778299508	1	1	NaN	3	NaN	NaN	NaN	NaN	NaN	0.2	0
4	3	153	0	NaN	1	NaN	NaN	NaN	0.2	1	745.555775007233	1	1	NaN	4	NaN	NaN	NaN	NaN	NaN	0.4	1
4	3	154	1	12	1	0	0	1	0.2	1	744.037082011346	2	0	0	5	0.2	1	12	0.6	1	0.2	0
4	3	155	0	NaN	1	NaN	NaN	NaN	1	2	800.227197003551	1	1	NaN	6	NaN	NaN	NaN	NaN	NaN	0.2	0
4	3	156	0	NaN	1	NaN	NaN	NaN	0.8	1	586.888423014898	2	0	NaN	7	NaN	NaN	NaN	NaN	NaN	1	0
4	3	157	0	NaN	1	NaN	NaN	NaN	1	2	851.775211980566	1	1	NaN	8	NaN	NaN	NaN	NaN	NaN	0.8	0
4	3	158	1	15	1	1	0	0	1	1	NaN	1	1	1	9	1	1	13	0	1	1	1
4	3	159	0	NaN	1	NaN	NaN	NaN	0	2	792.792808002559	1	1	NaN	10	NaN	NaN	NaN	NaN	NaN	1	1
4	3	160	0	NaN	1	NaN	NaN	NaN	0.4	1	539.760234998539	2	0	NaN	11	NaN	NaN	NaN	NaN	NaN	0	0
4	3	161	0	NaN	1	NaN	NaN	NaN	0.8	2	917.148682987317	2	0	NaN	12	NaN	NaN	NaN	NaN	NaN	0.4	1
4	3	162	1	10	1	0.4	0	1	0.4	2	697.340266982792	1	1	1	13	0	1	3	0.2	0	0.8	0
4	3	163	1	10	1	0.2	0	1	0.2	1	740.710385987768	1	1	1	14	0.4	1	4	0.4	0	0.4	1
4	3	164	0	NaN	1	NaN	NaN	NaN	1	1	795.398499991279	2	0	NaN	15	NaN	NaN	NaN	NaN	NaN	0.2	0
4	3	165	0	NaN	1	NaN	NaN	NaN	0.2	2	878.761575004319	2	0	NaN	16	NaN	NaN	NaN	NaN	NaN	1	1
4	3	166	1	18	2	0.6	0	0	0.6	1	647.790943010477	2	1	1	1	0.2	2	18	0.2	1	0.2	1
4	3	167	1	11	2	0.8	0	0	0.8	2	591.59061399987	2	1	1	2	0.6	2	7	1	1	0.6	1
4	3	168	1	17	2	0.2	0	1	0.2	2	857.820839999476	2	1	1	3	0.8	2	2	0.6	0	0.8	1
4	3	169	1	10	2	0	1	0	0	1	828.825984004652	1	0	1	4	0.2	1	10	1	0	0.2	0
4	3	170	1	10	2	0.4	0	1	0.2	2	897.237793018576	1	0	0	5	0.2	2	11	0	1	0	1
4	3	171	0	NaN	2	NaN	NaN	NaN	0.8	1	1214.52872798545	1	0	NaN	6	NaN	NaN	NaN	NaN	NaN	0.2	1
4	3	172	1	11	2	0.8	0	0	0.8	2	665.414988994598	2	1	1	7	0.2	2	12	0.4	1	0.8	0
4	3	173	1	23	2	0.6	1	1	0.6	1	733.394511014922	2	1	0	8	0.8	1	1	0	0	0.8	1
4	3	174	0	NaN	2	NaN	NaN	NaN	0.4	2	589.365599007579	1	0	NaN	9	NaN	NaN	NaN	NaN	NaN	0.6	0
4	3	175	1	11	2	1	0	0	0.6	1	431.114147999324	1	0	0	10	0.6	2	15	0.2	0	0.4	1
4	3	176	0	NaN	2	NaN	NaN	NaN	0.6	2	646.425851999084	1	0	NaN	11	NaN	NaN	NaN	NaN	NaN	0.6	1
4	3	177	1	12	2	0.2	0	1	0	2	747.66761000501	1	0	0	12	0.6	2	16	1	1	0.6	1
4	3	178	0	NaN	2	NaN	NaN	NaN	0.8	1	1007.17793000513	2	1	NaN	13	NaN	NaN	NaN	NaN	NaN	0	0
4	3	179	0	NaN	2	NaN	NaN	NaN	0.6	2	693.513470003381	2	1	NaN	14	NaN	NaN	NaN	NaN	NaN	0.8	1
4	3	180	0	NaN	2	NaN	NaN	NaN	0.4	2	717.466660978971	1	0	NaN	15	NaN	NaN	NaN	NaN	NaN	0.6	0
4	4	181	0	NaN	2	NaN	NaN	NaN	0	2	858.179722999921	1	0	NaN	16	NaN	NaN	NaN	NaN	NaN	0.4	1
4	4	182	1	27	1	1	0	0	0	2	573.205841996241	2	0	0	1	0	1	6	0.2	0	0	0
4	4	183	0	NaN	1	NaN	NaN	NaN	0.4	2	942.829659004929	2	0	NaN	2	NaN	NaN	NaN	NaN	NaN	0	1
4	4	184	0	NaN	1	NaN	NaN	NaN	1	1	603.519251017133	1	1	NaN	3	NaN	NaN	NaN	NaN	NaN	0.4	0
4	4	185	0	NaN	1	NaN	NaN	NaN	0.6	2	739.935813006014	1	1	NaN	4	NaN	NaN	NaN	NaN	NaN	1	1
4	4	186	0	NaN	1	NaN	NaN	NaN	0	1	728.337676002411	2	0	NaN	5	NaN	NaN	NaN	NaN	NaN	0.6	0
4	4	187	0	NaN	1	NaN	NaN	NaN	0	2	555.035891011357	2	0	NaN	6	NaN	NaN	NaN	NaN	NaN	0	1
4	4	188	0	NaN	1	NaN	NaN	NaN	0	1	750.549321004655	2	0	NaN	7	NaN	NaN	NaN	NaN	NaN	0	1
4	4	189	0	NaN	1	NaN	NaN	NaN	1	2	706.721321999794	1	1	NaN	8	NaN	NaN	NaN	NaN	NaN	0	0
4	4	190	0	NaN	1	NaN	NaN	NaN	0.8	1	977.179968002019	1	1	NaN	9	NaN	NaN	NaN	NaN	NaN	1	1
4	4	191	1	10	1	0	0	1	0	1	768.399060994852	1	1	1	10	0.8	1	16	0.4	0	0.8	1
4	4	192	1	18	1	0.4	0	1	0.2	2	956.790716998512	2	0	0	11	0	1	9	0.6	1	0	0
4	4	193	1	13	1	0.4	0	1	0	2	781.485757994233	2	0	0	12	0	1	15	0.6	1	0.2	1
4	4	194	0	NaN	1	NaN	NaN	NaN	0.2	1	866.156406991649	1	1	NaN	13	NaN	NaN	NaN	NaN	NaN	0	0
4	4	195	0	NaN	1	NaN	NaN	NaN	0.4	2	1035.27253799257	2	0	NaN	14	NaN	NaN	NaN	NaN	NaN	0.2	0
4	4	196	1	17	1	0.6	1	1	0.6	2	1356.44332398078	2	0	1	15	0.4	2	14	0.8	1	0.4	1
4	4	197	0	NaN	1	NaN	NaN	NaN	0.2	2	880.362393014366	1	1	NaN	16	NaN	NaN	NaN	NaN	NaN	0.6	0
4	4	198	1	20	1	0.8	1	1	0.8	2	687.467048002873	2	0	1	17	0.6	2	13	0	1	0.2	0
4	4	199	1	13	1	0	1	0	0	1	690.938117011683	2	0	1	18	0.8	2	5	0.6	0	0.8	1
4	4	200	1	13	1	0	1	0	0	2	721.302074991399	2	0	1	19	0	2	6	0	0	0	1
4	4	201	1	13	1	0	1	0	0.6	2	797.255765995942	1	1	0	20	0	2	7	0	1	0	0
4	4	202	1	26	1	0.6	0	0	0.6	2	819.59149899194	1	1	1	21	0.6	1	11	0.6	1	0.6	1
4	4	203	0	NaN	1	NaN	NaN	NaN	0.8	1	901.323315978516	1	1	NaN	22	NaN	NaN	NaN	NaN	NaN	0.6	1
4	4	204	0	NaN	1	NaN	NaN	NaN	1	2	687.542207015213	1	1	NaN	23	NaN	NaN	NaN	NaN	NaN	0.8	1
4	4	205	0	NaN	2	NaN	NaN	NaN	0.8	2	762.404198001605	2	1	NaN	1	NaN	NaN	NaN	NaN	NaN	1	0
4	4	206	1	12	2	0.2	1	0	1	1	919.195769994985	2	1	0	2	1	1	13	0	1	0.8	1
4	4	207	1	10	2	0.2	1	0	0.2	2	696.047752979212	1	0	1	3	1	1	16	0.6	0	1	0
4	4	208	0	NaN	2	NaN	NaN	NaN	0.2	2	751.857402996393	2	1	NaN	4	NaN	NaN	NaN	NaN	NaN	0.2	0
4	4	209	0	NaN	2	NaN	NaN	NaN	0.6	1	894.451797998045	2	1	NaN	5	NaN	NaN	NaN	NaN	NaN	0.2	1
4	4	210	0	NaN	2	NaN	NaN	NaN	1	2	543.143329996383	2	1	NaN	6	NaN	NaN	NaN	NaN	NaN	0.6	1
4	4	211	0	NaN	2	NaN	NaN	NaN	1	1	777.173763985047	2	1	NaN	7	NaN	NaN	NaN	NaN	NaN	1	1
4	4	212	1	27	2	0.6	1	1	0.4	1	623.312805983005	2	1	0	8	0.2	1	4	1	0	1	1
4	4	213	0	NaN	2	NaN	NaN	NaN	1	2	669.763708981918	1	0	NaN	9	NaN	NaN	NaN	NaN	NaN	0.4	0
4	4	214	0	NaN	2	NaN	NaN	NaN	0	1	NaN	1	0	NaN	10	NaN	NaN	NaN	NaN	NaN	1	1
4	4	215	1	20	2	0.4	0	1	0.4	2	874.376193998614	2	1	1	11	0.4	2	14	0.2	0	0	0
4	4	216	0	NaN	2	NaN	NaN	NaN	1	2	781.178698991425	2	1	NaN	12	NaN	NaN	NaN	NaN	NaN	0.4	1
4	4	217	0	NaN	2	NaN	NaN	NaN	1	2	672.770420991583	2	1	NaN	13	NaN	NaN	NaN	NaN	NaN	1	1
4	4	218	0	NaN	2	NaN	NaN	NaN	1	1	534.402605000651	2	1	NaN	14	NaN	NaN	NaN	NaN	NaN	1	1
4	4	219	0	NaN	2	NaN	NaN	NaN	0.8	1	1244.90176100517	2	1	NaN	15	NaN	NaN	NaN	NaN	NaN	1	1
4	4	220	0	NaN	2	NaN	NaN	NaN	0	2	992.924149002647	1	0	NaN	16	NaN	NaN	NaN	NaN	NaN	0.8	0
4	4	221	1	12	2	0.6	0	0	0.6	2	590.317659021821	2	1	1	17	0.8	2	5	0.2	1	0	0
4	4	222	1	12	2	1	0	0	0.4	1	690.501344011864	1	0	0	18	0.6	2	6	0.6	0	0.6	0
4	4	223	1	18	1	0.8	1	1	0.2	2	461.814829992363	1	1	0	1	0.6	2	1	1	0	0.4	1
4	4	224	0	NaN	1	NaN	NaN	NaN	0.6	1	652.49439899344	2	0	NaN	2	NaN	NaN	NaN	NaN	NaN	0.2	0
4	4	225	0	NaN	1	NaN	NaN	NaN	0	1	1419.75024199928	1	1	NaN	3	NaN	NaN	NaN	NaN	NaN	0.6	0
4	4	226	0	NaN	1	NaN	NaN	NaN	0.8	2	616.869753983337	1	1	NaN	4	NaN	NaN	NaN	NaN	NaN	0	1
4	4	227	0	NaN	1	NaN	NaN	NaN	0.8	1	833.742415008601	1	1	NaN	5	NaN	NaN	NaN	NaN	NaN	0.8	1
4	4	228	0	NaN	1	NaN	NaN	NaN	0	1	635.826259007445	2	0	NaN	6	NaN	NaN	NaN	NaN	NaN	0.8	0
4	4	229	0	NaN	1	NaN	NaN	NaN	0.6	2	839.117459021509	2	0	NaN	7	NaN	NaN	NaN	NaN	NaN	0	1
4	4	230	1	16	1	0	0	1	0	2	922.307864006143	1	1	1	8	0.8	1	10	1	0	0.6	0
4	4	231	1	12	1	0.8	1	1	0.8	1	733.765193988802	2	0	1	9	0.6	2	15	1	1	0	0
4	4	232	0	NaN	1	NaN	NaN	NaN	0.2	1	738.509709015489	1	1	NaN	10	NaN	NaN	NaN	NaN	NaN	0.8	0
4	4	233	1	17	1	1	1	1	1	2	642.326975008473	2	0	1	11	0.8	2	12	0.4	1	0.2	0
4	4	234	0	NaN	1	NaN	NaN	NaN	0.6	1	599.202330980916	1	1	NaN	12	NaN	NaN	NaN	NaN	NaN	1	0
4	4	235	1	11	1	0.6	1	1	0.6	1	761.302023020107	2	0	1	13	1	2	2	0.2	1	0.6	0
4	4	236	0	NaN	1	NaN	NaN	NaN	0	2	679.530458000954	2	0	NaN	14	NaN	NaN	NaN	NaN	NaN	0.6	1
4	4	237	1	19	1	1	1	1	0.4	1	764.766109990887	1	1	0	15	0	2	14	1	0	0	0
4	4	238	0	NaN	1	NaN	NaN	NaN	0.6	1	724.346277012955	1	1	NaN	16	NaN	NaN	NaN	NaN	NaN	0.4	1
4	4	239	1	10	1	0.6	1	1	0.8	2	736.644797987537	1	1	0	17	0	2	7	0	0	0.6	1
4	4	240	1	12	1	0	1	0	1	1	813.817199988989	1	1	0	18	0	2	6	0.8	1	0.8	1
4	5	241	0	NaN	1	NaN	NaN	NaN	0.8	1	881.818139983807	1	1	NaN	19	NaN	NaN	NaN	NaN	NaN	1	1
4	5	242	0	NaN	1	NaN	NaN	NaN	1	2	970.760797004914	1	1	NaN	20	NaN	NaN	NaN	NaN	NaN	0.8	1
4	5	243	0	NaN	2	NaN	NaN	NaN	0.4	1	579.344180005137	2	1	NaN	1	NaN	NaN	NaN	NaN	NaN	1	0
4	5	244	1	19	2	0	1	0	0.2	2	759.196400002111	2	1	0	2	1	1	3	0.6	1	0.4	1
4	5	245	0	NaN	2	NaN	NaN	NaN	0.2	1	708.400510018691	1	0	NaN	3	NaN	NaN	NaN	NaN	NaN	0.2	0
4	5	246	0	NaN	2	NaN	NaN	NaN	0.6	1	744.842863001395	2	1	NaN	4	NaN	NaN	NaN	NaN	NaN	0.2	0
4	5	247	1	27	2	0	1	0	0	1	607.506878004642	1	0	1	5	0.2	1	16	0.8	0	0.6	0
4	5	248	1	16	2	0.2	1	0	0.2	2	734.05076097697	1	0	1	6	0	1	10	0.8	0	0	1
4	5	249	1	15	2	0.6	1	1	0.6	1	673.165283980779	1	0	1	7	0.2	1	12	1	1	0.2	1
4	5	250	1	12	2	0.6	1	1	0.6	2	584.489509987179	1	0	1	8	0.6	1	16	0.4	1	0.6	1
4	5	251	0	NaN	2	NaN	NaN	NaN	0.4	1	784.760295005981	1	0	NaN	9	NaN	NaN	NaN	NaN	NaN	0.6	1
4	5	252	0	NaN	2	NaN	NaN	NaN	0.8	2	813.49724100437	2	1	NaN	10	NaN	NaN	NaN	NaN	NaN	0.4	0
4	5	253	1	11	2	1	1	1	1	1	761.861339997267	1	0	1	11	0.4	1	20	0.8	1	0.8	0
4	5	254	1	27	2	0.8	1	1	0.8	1	712.632762006251	1	0	1	12	1	1	5	0.8	1	1	1
4	5	255	1	10	2	0.2	1	0	1	1	548.966301983455	2	1	0	13	0.8	1	3	0.2	1	0.8	0
4	5	256	0	NaN	2	NaN	NaN	NaN	0	2	690.829058003146	1	0	NaN	14	NaN	NaN	NaN	NaN	NaN	1	0
4	5	257	0	NaN	2	NaN	NaN	NaN	0.4	1	630.933139997069	2	1	NaN	15	NaN	NaN	NaN	NaN	NaN	0	0
4	5	258	1	12	2	0.6	0	0	0.6	2	690.861447015777	2	1	1	16	0.4	2	4	0.2	1	0.4	1
4	5	259	0	NaN	2	NaN	NaN	NaN	0	1	685.426647018176	2	1	NaN	17	NaN	NaN	NaN	NaN	NaN	0.6	1
4	5	260	1	24	2	0	0	1	0	1	783.882663992699	2	1	1	18	0	2	14	0.6	0	0	1
4	5	261	1	10	2	0.4	1	0	0.4	2	873.885187989799	1	0	1	19	0	1	9	0.6	0	0	0
4	5	262	1	10	2	0.8	0	0	0.8	2	754.485133977141	2	1	1	20	0	2	10	0.4	1	0.4	0
4	5	263	1	20	2	0.4	0	1	0.4	1	565.796451992355	2	1	1	21	0.8	2	1	1	0	0.8	1
4	5	264	0	NaN	2	NaN	NaN	NaN	1	1	817.246263002744	2	1	NaN	22	NaN	NaN	NaN	NaN	NaN	0.4	1
4	5	265	0	NaN	1	NaN	NaN	NaN	0	1	NaN	2	0	NaN	1	NaN	NaN	NaN	NaN	NaN	1	1
4	5	266	1	25	1	0.8	0	0	0.8	2	649.455485021463	1	1	1	2	0.4	1	19	1	1	0	0
4	5	267	0	NaN	1	NaN	NaN	NaN	0.8	1	692.532319022575	2	0	NaN	3	NaN	NaN	NaN	NaN	NaN	0.8	0
4	5	268	0	NaN	1	NaN	NaN	NaN	0.8	1	695.552732009673	1	1	NaN	4	NaN	NaN	NaN	NaN	NaN	0.8	0
4	5	269	0	NaN	1	NaN	NaN	NaN	0.6	2	858.949777000817	1	1	NaN	5	NaN	NaN	NaN	NaN	NaN	0.8	1
4	5	270	0	NaN	1	NaN	NaN	NaN	0.6	1	494.794551021187	2	0	NaN	6	NaN	NaN	NaN	NaN	NaN	0.6	0
4	5	271	1	15	1	0	0	1	0	2	787.482367974008	1	1	1	7	0.6	1	14	1	0	0.6	0
4	5	272	0	NaN	1	NaN	NaN	NaN	1	1	985.753107990604	1	1	NaN	8	NaN	NaN	NaN	NaN	NaN	0	1
4	5	273	1	14	1	0	1	0	0	2	769.382630009204	2	0	1	9	0.6	2	17	0.6	0	1	0
4	5	274	1	10	1	1	1	1	0.8	1	561.834221007302	1	1	0	10	0	2	22	0.4	0	0	0
4	5	275	0	NaN	1	NaN	NaN	NaN	0.6	2	736.762101994827	1	1	NaN	11	NaN	NaN	NaN	NaN	NaN	0.8	1
4	5	276	0	NaN	1	NaN	NaN	NaN	0.6	1	NaN	2	0	NaN	12	NaN	NaN	NaN	NaN	NaN	0.6	0
4	5	277	1	10	1	0.8	1	1	0.8	2	534.424988989485	2	0	1	13	0.6	2	3	0.8	1	0.6	1
4	5	278	0	NaN	1	NaN	NaN	NaN	0.2	1	702.932448999491	2	0	NaN	14	NaN	NaN	NaN	NaN	NaN	0.8	1
4	5	279	1	22	1	0.4	1	0	0.4	1	627.401503006695	2	0	1	15	0.2	2	15	0	0	0.2	1
4	5	280	0	NaN	1	NaN	NaN	NaN	0	1	561.387405003188	2	0	NaN	16	NaN	NaN	NaN	NaN	NaN	0.4	1
4	5	281	1	11	1	0.6	1	1	0.6	1	745.796814997448	2	0	1	17	0	2	6	0.6	1	0	1
4	5	282	1	17	1	0	1	0	0	2	616.06568901334	2	0	1	18	0.6	2	1	1	0	0.6	1
4	5	283	1	15	1	0.8	0	0	1	1	534.327239991399	2	0	0	19	0.6	1	4	0.8	0	0	1
4	5	284	0	NaN	2	NaN	NaN	NaN	0.4	2	810.083188989665	2	1	NaN	1	NaN	NaN	NaN	NaN	NaN	1	1
4	5	285	1	16	2	0.6	1	1	0	2	712.358165998012	2	1	0	2	0.6	1	5	0.8	0	0.4	1
4	5	286	0	NaN	2	NaN	NaN	NaN	0	1	762.429288995918	1	0	NaN	3	NaN	NaN	NaN	NaN	NaN	0	0
4	5	287	0	NaN	2	NaN	NaN	NaN	0.8	2	676.142701995559	2	1	NaN	4	NaN	NaN	NaN	NaN	NaN	0	0
4	5	288	0	NaN	2	NaN	NaN	NaN	0.2	1	751.333474006969	1	0	NaN	5	NaN	NaN	NaN	NaN	NaN	0.8	0
4	5	289	0	NaN	2	NaN	NaN	NaN	0.6	1	645.59426199412	2	1	NaN	6	NaN	NaN	NaN	NaN	NaN	0.2	0
4	5	290	1	14	2	0.6	0	0	0.6	1	NaN	2	1	1	7	0.6	2	12	0.6	1	0.6	1
4	5	291	1	16	2	0.6	1	1	0.6	2	905.354963004356	1	0	1	8	0.2	1	11	0.8	1	0.6	0
4	5	292	0	NaN	2	NaN	NaN	NaN	1	1	618.864952004515	2	1	NaN	9	NaN	NaN	NaN	NaN	NaN	0.6	0
4	5	293	0	NaN	2	NaN	NaN	NaN	0.4	2	763.651430985192	2	1	NaN	10	NaN	NaN	NaN	NaN	NaN	1	1
4	5	294	0	NaN	2	NaN	NaN	NaN	0.4	1	NaN	2	1	NaN	11	NaN	NaN	NaN	NaN	NaN	0.4	1
4	5	295	0	NaN	2	NaN	NaN	NaN	1	1	753.818109980784	2	1	NaN	12	NaN	NaN	NaN	NaN	NaN	0.4	1
4	5	296	0	NaN	2	NaN	NaN	NaN	0.8	1	913.077197008533	1	0	NaN	13	NaN	NaN	NaN	NaN	NaN	1	0
4	5	297	0	NaN	2	NaN	NaN	NaN	1	2	621.299763006391	2	1	NaN	14	NaN	NaN	NaN	NaN	NaN	0.8	0
4	5	298	1	11	2	0.8	0	0	0.8	2	671.831612999085	2	1	1	15	1	2	4	0	1	1	1
4	5	299	1	13	2	0	1	0	0	1	537.249773013173	1	0	1	16	0.8	1	3	0	0	0.8	0
4	5	300	0	NaN	2	NaN	NaN	NaN	0.2	1	660.281460994156	1	0	NaN	17	NaN	NaN	NaN	NaN	NaN	0	1
5	1	1	0	NaN	1	NaN	NaN	NaN	1	2	626.764407003066	1	1	NaN	1	NaN	NaN	NaN	NaN	NaN	NaN	NaN
5	1	2	0	NaN	1	NaN	NaN	NaN	1	2	594.789834984113	1	1	NaN	2	NaN	NaN	NaN	NaN	NaN	1	1
5	1	3	0	NaN	1	NaN	NaN	NaN	0.6	1	1181.50539498311	1	1	NaN	3	NaN	NaN	NaN	NaN	NaN	1	1
5	1	4	0	NaN	1	NaN	NaN	NaN	1	1	785.48500299803	1	1	NaN	4	NaN	NaN	NaN	NaN	NaN	0.6	1
5	1	5	0	NaN	1	NaN	NaN	NaN	0.2	1	932.140578981489	2	0	NaN	5	NaN	NaN	NaN	NaN	NaN	1	0
5	1	6	0	NaN	1	NaN	NaN	NaN	0.4	1	696.487097011413	1	1	NaN	6	NaN	NaN	NaN	NaN	NaN	0.2	0
5	1	7	0	NaN	1	NaN	NaN	NaN	1	1	812.27184299496	1	1	NaN	7	NaN	NaN	NaN	NaN	NaN	0.4	1
5	1	8	0	NaN	1	NaN	NaN	NaN	0.2	2	1194.63579598232	1	1	NaN	8	NaN	NaN	NaN	NaN	NaN	1	1
5	1	9	0	NaN	1	NaN	NaN	NaN	0.6	1	924.394742993172	1	1	NaN	9	NaN	NaN	NaN	NaN	NaN	0.2	1
5	1	10	0	NaN	1	NaN	NaN	NaN	0.8	1	754.349745984655	1	1	NaN	10	NaN	NaN	NaN	NaN	NaN	0.6	1
5	1	11	0	NaN	1	NaN	NaN	NaN	0.4	1	NaN	2	0	NaN	11	NaN	NaN	NaN	NaN	NaN	0.8	0
5	1	12	0	NaN	1	NaN	NaN	NaN	0	1	1074.24119202187	1	1	NaN	12	NaN	NaN	NaN	NaN	NaN	0.4	0
5	1	13	1	12	1	1	0	0	1	2	1190.97229500767	1	1	1	13	0	1	1	0.2	1	0	1
5	1	14	1	11	1	0.6	0	0	0.6	1	NaN	1	1	1	14	1	1	3	1	1	1	1
5	1	15	0	NaN	1	NaN	NaN	NaN	0.4	2	966.815060994122	1	1	NaN	15	NaN	NaN	NaN	NaN	NaN	0.6	1
5	1	16	1	10	2	0.4	1	0	0.4	1	NaN	1	0	1	1	0.4	1	6	0.2	0	0.4	1
5	1	17	1	12	2	0.2	0	1	0.8	2	872.803206002573	1	0	0	2	0.4	2	5	1	1	0.4	1
5	1	18	0	NaN	2	NaN	NaN	NaN	0	1	677.214816998458	1	0	NaN	3	NaN	NaN	NaN	NaN	NaN	0.8	1
5	1	19	1	11	2	0.2	1	0	0.2	2	1417.04720200505	1	0	1	4	0	1	8	1	0	0	1
5	1	20	1	18	2	1	1	1	0.4	1	844.264759973157	2	1	0	5	0.2	1	2	1	0	0.2	0
5	1	21	1	10	2	0.4	0	1	0.4	1	1245.56630800362	2	1	1	6	0.4	2	11	0.8	0	0.4	1
5	1	22	1	10	2	0	1	0	0.8	1	1215.83367799758	2	1	0	7	0.2	1	12	0.4	1	0.4	1
5	1	23	1	13	2	0.8	1	1	0.8	1	1114.93317200802	1	0	1	8	0.2	1	10	0.6	1	0.8	0
5	1	24	0	NaN	2	NaN	NaN	NaN	0.2	1	NaN	1	0	NaN	9	NaN	NaN	NaN	NaN	NaN	0.8	1
5	1	25	0	NaN	2	NaN	NaN	NaN	0.8	1	1088.2373600034	2	1	NaN	10	NaN	NaN	NaN	NaN	NaN	0.2	0
5	1	26	0	NaN	2	NaN	NaN	NaN	0.6	2	677.581528987503	2	1	NaN	11	NaN	NaN	NaN	NaN	NaN	0.8	1
5	1	27	0	NaN	2	NaN	NaN	NaN	0.6	2	721.447835996514	2	1	NaN	12	NaN	NaN	NaN	NaN	NaN	0.6	1
5	1	28	0	NaN	2	NaN	NaN	NaN	0.8	1	799.712117004674	2	1	NaN	13	NaN	NaN	NaN	NaN	NaN	0.6	1
5	1	29	1	11	2	0	1	0	0.2	1	1015.52143399022	2	1	0	14	0.2	1	3	0.8	1	0.8	1
5	1	30	1	15	2	0.4	1	0	0	2	1224.45318099926	2	1	0	15	0.2	1	15	0.6	1	0.2	1
5	1	31	1	27	2	1	1	1	1	2	685.719225992216	1	0	1	16	0.2	1	4	0.6	1	0	0
5	1	32	1	23	1	0.6	0	0	0.6	1	1455.56539698737	1	1	1	1	1	1	9	0.2	1	1	1
5	1	33	0	NaN	1	NaN	NaN	NaN	0	2	1089.43747900776	2	0	NaN	2	NaN	NaN	NaN	NaN	NaN	0.6	0
5	1	34	0	NaN	1	NaN	NaN	NaN	1	1	1359.01683798875	1	1	NaN	3	NaN	NaN	NaN	NaN	NaN	0	0
5	1	35	1	11	1	0.2	0	1	0.2	1	859.954664018005	1	1	1	4	1	1	9	0.8	0	1	1
5	1	36	1	11	1	0.8	1	1	1	2	1183.22159501258	1	1	0	5	0	2	10	0.2	0	0.2	1
5	1	37	0	NaN	1	NaN	NaN	NaN	0.8	1	808.454532991163	1	1	NaN	6	NaN	NaN	NaN	NaN	NaN	1	1
5	1	38	1	11	1	0.6	1	1	0.4	1	944.711430987809	1	1	0	7	0	2	12	0.6	0	0.8	1
5	1	39	1	13	1	0.6	1	1	1	1	526.825509004993	1	1	0	8	0	2	11	0.8	0	0.4	1
5	1	40	0	NaN	1	NaN	NaN	NaN	0	2	893.699106993154	1	1	NaN	9	NaN	NaN	NaN	NaN	NaN	1	1
5	1	41	0	NaN	1	NaN	NaN	NaN	1	2	617.868929984979	1	1	NaN	10	NaN	NaN	NaN	NaN	NaN	0	1
5	1	42	0	NaN	1	NaN	NaN	NaN	0.8	1	1017.36088198959	1	1	NaN	11	NaN	NaN	NaN	NaN	NaN	1	1
5	1	43	0	NaN	1	NaN	NaN	NaN	0.4	2	855.361080000876	1	1	NaN	12	NaN	NaN	NaN	NaN	NaN	0.8	1
5	1	44	1	16	1	0.8	1	1	1	2	495.922286994755	1	1	0	13	0	2	13	0.6	0	0.4	1
5	1	45	1	12	1	0	1	0	0.6	1	1230.77286800253	1	1	0	14	0	2	2	0.6	1	1	1
5	1	46	0	NaN	1	NaN	NaN	NaN	0.8	1	834.479582001222	1	1	NaN	15	NaN	NaN	NaN	NaN	NaN	0.6	1
5	1	47	1	10	1	0.8	0	0	0.8	1	1201.33191498462	1	1	1	16	0.8	1	6	1	1	0.8	1
5	1	48	0	NaN	1	NaN	NaN	NaN	0	1	1013.19004298421	2	0	NaN	17	NaN	NaN	NaN	NaN	NaN	0.8	0
5	1	49	0	NaN	1	NaN	NaN	NaN	0.6	2	755.431389989099	1	1	NaN	18	NaN	NaN	NaN	NaN	NaN	0	0
5	1	50	1	16	1	1	0	0	1	2	978.354956983821	1	1	1	19	0.6	1	3	0	1	0.6	1
5	1	51	1	10	2	1	1	1	0.2	1	1157.95629899367	2	1	0	1	1	1	10	0	0	1	0
5	1	52	0	NaN	2	NaN	NaN	NaN	0.6	1	914.956471009646	1	0	NaN	2	NaN	NaN	NaN	NaN	NaN	0.2	0
5	1	53	1	10	2	0.4	1	0	0.4	1	1018.19980301661	1	0	1	3	0.6	1	12	0.8	0	0.6	1
5	1	54	0	NaN	2	NaN	NaN	NaN	0.6	1	777.259110996965	1	0	NaN	4	NaN	NaN	NaN	NaN	NaN	0.4	1
5	1	55	0	NaN	2	NaN	NaN	NaN	0.6	1	1019.12219900987	1	0	NaN	5	NaN	NaN	NaN	NaN	NaN	0.6	1
5	1	56	0	NaN	2	NaN	NaN	NaN	0.8	2	936.810227984097	1	0	NaN	6	NaN	NaN	NaN	NaN	NaN	0.6	1
5	1	57	1	17	2	0	1	0	0	1	678.320972016081	1	0	1	7	0.8	1	9	1	0	0.8	1
5	1	58	1	10	2	0	0	1	0.8	1	711.458175996086	1	0	0	8	0.2	2	17	0.8	1	0	1
5	1	59	1	10	2	0.6	1	1	0.6	2	856.163110001944	1	0	1	9	0.8	1	18	0	1	0.8	1
5	1	60	1	18	2	0.8	1	1	0.8	2	1369.01315001887	1	0	1	10	0.6	1	11	1	1	0.6	1
5	2	61	0	NaN	2	NaN	NaN	NaN	0.2	1	763.40187099413	1	0	NaN	11	NaN	NaN	NaN	NaN	NaN	0.8	1
5	2	62	1	10	2	0.6	1	1	0.6	2	1220.94171700883	1	0	1	12	0.2	1	2	0.2	1	0.2	1
5	2	63	0	NaN	2	NaN	NaN	NaN	0.4	1	885.000037989812	1	0	NaN	13	NaN	NaN	NaN	NaN	NaN	0.6	1
5	2	64	0	NaN	2	NaN	NaN	NaN	0.2	1	774.00255901739	2	1	NaN	14	NaN	NaN	NaN	NaN	NaN	0.4	0
5	2	65	1	11	2	0.6	1	1	0.6	1	NaN	1	0	1	15	0.4	1	4	0.4	1	0.2	0
5	2	66	0	NaN	2	NaN	NaN	NaN	1	2	1075.98196199979	2	1	NaN	16	NaN	NaN	NaN	NaN	NaN	0.6	0
5	2	67	0	NaN	2	NaN	NaN	NaN	0.6	2	785.665748000611	2	1	NaN	17	NaN	NaN	NaN	NaN	NaN	1	1
5	2	68	0	NaN	2	NaN	NaN	NaN	0.8	2	540.12985699228	2	1	NaN	18	NaN	NaN	NaN	NaN	NaN	0.6	1
5	2	69	0	NaN	2	NaN	NaN	NaN	1	2	736.792742012767	2	1	NaN	19	NaN	NaN	NaN	NaN	NaN	0.8	1
5	2	70	0	NaN	2	NaN	NaN	NaN	0.2	2	705.75247798115	2	1	NaN	20	NaN	NaN	NaN	NaN	NaN	1	1
5	2	71	1	10	2	0.2	1	0	0.2	2	599.52641100972	2	1	0	21	0.6	1	11	0.8	1	0.2	1
5	2	72	0	NaN	2	NaN	NaN	NaN	0.8	1	860.838876018533	2	1	NaN	22	NaN	NaN	NaN	NaN	NaN	0.2	1
5	2	73	0	NaN	1	NaN	NaN	NaN	0	1	928.34422600572	2	0	NaN	1	NaN	NaN	NaN	NaN	NaN	0.8	1
5	2	74	1	11	1	0.4	0	1	0.4	2	924.309583002469	1	1	1	2	0.6	1	13	0.6	0	0	0
5	2	75	1	11	1	0.2	1	0	1	1	NaN	1	1	0	3	0	2	14	0.4	1	0.4	1
5	2	76	0	NaN	1	NaN	NaN	NaN	0	1	988.202198990621	2	0	NaN	4	NaN	NaN	NaN	NaN	NaN	1	0
5	2	77	1	22	1	0.6	0	0	0.6	1	1081.31796098314	1	1	1	5	1	1	5	0.6	1	0	0
5	2	78	0	NaN	1	NaN	NaN	NaN	0.8	1	857.693221012596	1	1	NaN	6	NaN	NaN	NaN	NaN	NaN	0.6	1
5	2	79	0	NaN	1	NaN	NaN	NaN	0	1	969.454719976056	1	1	NaN	7	NaN	NaN	NaN	NaN	NaN	0.8	1
5	2	80	0	NaN	1	NaN	NaN	NaN	1	2	877.764550008578	1	1	NaN	8	NaN	NaN	NaN	NaN	NaN	0	1
5	2	81	0	NaN	1	NaN	NaN	NaN	0.6	1	749.944416980725	1	1	NaN	9	NaN	NaN	NaN	NaN	NaN	1	1
5	2	82	1	15	1	0.6	1	1	1	2	717.258021992166	1	1	0	10	0	2	17	1	0	0.6	1
5	2	83	1	15	1	0.8	1	1	0	2	828.416223987006	1	1	0	11	0	2	18	0.6	0	1	1
5	2	84	0	NaN	1	NaN	NaN	NaN	0.8	2	1279.43348197732	1	1	NaN	12	NaN	NaN	NaN	NaN	NaN	0	1
5	2	85	0	NaN	1	NaN	NaN	NaN	0.6	1	766.883859003428	1	1	NaN	13	NaN	NaN	NaN	NaN	NaN	0.8	1
5	2	86	1	14	1	0.8	1	1	1	2	562.131488986779	1	1	0	14	0	2	22	0.2	0	0.6	1
5	2	87	1	21	1	1	1	1	0	1	NaN	1	1	0	15	0	2	16	0.6	0	1	1
5	2	88	0	NaN	1	NaN	NaN	NaN	1	2	1360.20621898933	1	1	NaN	16	NaN	NaN	NaN	NaN	NaN	0	1
5	2	89	0	NaN	1	NaN	NaN	NaN	0.4	1	1082.02248899033	1	1	NaN	17	NaN	NaN	NaN	NaN	NaN	1	1
5	2	90	1	21	1	1	1	1	1	2	1113.89294901164	2	0	1	18	0	2	19	0.8	1	0.4	0
5	2	91	1	15	1	0	1	0	0.4	2	867.412563995458	1	1	0	19	1	2	4	1	1	1	0
5	2	92	0	NaN	1	NaN	NaN	NaN	0.8	1	1314.05216900748	1	1	NaN	20	NaN	NaN	NaN	NaN	NaN	0.4	1
5	2	93	0	NaN	1	NaN	NaN	NaN	0.2	2	855.778113007545	1	1	NaN	21	NaN	NaN	NaN	NaN	NaN	0.8	1
5	2	94	1	21	1	0	1	0	0	2	982.51547201653	2	0	1	22	1	2	1	0.8	0	0.2	0
5	2	95	0	NaN	1	NaN	NaN	NaN	0.2	2	1090.38494198467	2	0	NaN	23	NaN	NaN	NaN	NaN	NaN	0	1
5	2	96	0	NaN	1	NaN	NaN	NaN	0.6	2	873.78099799389	1	1	NaN	24	NaN	NaN	NaN	NaN	NaN	0.2	0
5	2	97	1	18	2	0	1	0	0	1	870.074550999561	1	0	1	1	0.6	1	7	0.8	0	0.6	1
5	2	98	1	28	2	0.2	0	1	0.2	1	1111.327074992	2	1	1	2	0.2	2	20	1	0	0	0
5	2	99	0	NaN	2	NaN	NaN	NaN	0.4	2	1054.33503701352	1	0	NaN	3	NaN	NaN	NaN	NaN	NaN	0.2	0
5	2	100	1	11	2	0.4	1	0	0.4	2	973.07376700337	1	0	1	4	0.4	1	17	1	0	0.4	1
5	2	101	0	NaN	2	NaN	NaN	NaN	0.2	2	995.193078008015	1	0	NaN	5	NaN	NaN	NaN	NaN	NaN	0.4	1
5	2	102	1	21	2	0.6	1	1	0.8	1	886.922550009331	2	1	0	6	0.2	1	9	1	0	0.2	0
5	2	103	0	NaN	2	NaN	NaN	NaN	0.6	2	802.750523987925	2	1	NaN	7	NaN	NaN	NaN	NaN	NaN	0.8	1
5	2	104	0	NaN	2	NaN	NaN	NaN	1	1	921.304916002555	2	1	NaN	8	NaN	NaN	NaN	NaN	NaN	0.6	1
5	2	105	1	12	2	0.2	1	0	0.6	2	848.324516991852	2	1	0	9	0.2	1	21	0.8	1	1	1
5	2	106	1	22	2	0.8	1	1	1	2	823.827569984132	2	1	0	10	0.2	1	12	0	0	0.6	1
5	2	107	0	NaN	2	NaN	NaN	NaN	0.4	2	1090.63482799684	2	1	NaN	11	NaN	NaN	NaN	NaN	NaN	1	1
5	2	108	1	12	2	0.6	1	1	1	1	1003.67249498959	2	1	0	12	0.2	1	24	0.2	0	0.4	1
5	2	109	0	NaN	2	NaN	NaN	NaN	0.2	1	1277.92240900453	2	1	NaN	13	NaN	NaN	NaN	NaN	NaN	1	1
5	2	110	1	11	2	0.4	1	0	1	1	1139.89316800144	2	1	0	14	0.2	1	3	0.2	1	0.2	1
5	2	111	0	NaN	2	NaN	NaN	NaN	0.8	1	1009.33509599417	2	1	NaN	15	NaN	NaN	NaN	NaN	NaN	1	1
5	2	112	0	NaN	2	NaN	NaN	NaN	0.8	1	1198.47918397863	2	1	NaN	16	NaN	NaN	NaN	NaN	NaN	0.8	1
5	2	113	0	NaN	2	NaN	NaN	NaN	0.6	2	768.701117980527	2	1	NaN	17	NaN	NaN	NaN	NaN	NaN	0.8	1
5	2	114	0	NaN	2	NaN	NaN	NaN	0.4	2	890.757446002681	2	1	NaN	18	NaN	NaN	NaN	NaN	NaN	0.6	1
5	2	115	0	NaN	2	NaN	NaN	NaN	0.6	1	829.510278999805	2	1	NaN	19	NaN	NaN	NaN	NaN	NaN	0.4	1
5	2	116	0	NaN	1	NaN	NaN	NaN	0	1	780.418915004702	2	0	NaN	1	NaN	NaN	NaN	NaN	NaN	0.6	1
5	2	117	0	NaN	1	NaN	NaN	NaN	0.8	1	533.820687007392	2	0	NaN	2	NaN	NaN	NaN	NaN	NaN	0	1
5	2	118	1	17	1	0.2	0	1	0.2	1	1380.07041698438	2	0	0	3	0.2	1	5	0.4	1	0.8	1
5	2	119	1	16	1	0.6	1	1	0.6	2	1240.4656339786	2	0	1	4	0.2	2	7	0.8	1	0.2	1
5	2	120	1	11	1	0.2	1	0	0.2	1	1215.46193800168	2	0	1	5	0.6	2	13	1	0	0.6	1
5	3	121	1	10	1	0.8	1	1	0.8	1	937.535906996345	2	0	1	6	0.2	2	15	1	1	0.2	1
5	3	122	1	10	1	0.8	1	1	0.8	1	1148.08120200178	2	0	1	7	0.8	2	16	0.8	1	0.8	1
5	3	123	0	NaN	1	NaN	NaN	NaN	0.4	1	864.038439001888	2	0	NaN	8	NaN	NaN	NaN	NaN	NaN	0.8	1
5	3	124	1	11	1	0.6	1	1	0.6	2	1422.24936300772	2	0	1	9	0.4	2	17	0.8	1	0.4	1
5	3	125	1	10	1	0.6	1	1	1	1	NaN	1	1	0	10	0.6	2	19	0.4	0	0.6	0
5	3	126	1	10	1	0	1	0	0	2	1218.98651399533	2	0	1	11	0.6	2	1	0.6	0	1	0
5	3	127	0	NaN	1	NaN	NaN	NaN	0.4	1	NaN	2	0	NaN	12	NaN	NaN	NaN	NaN	NaN	0	1
5	3	128	0	NaN	1	NaN	NaN	NaN	0.4	1	1071.87067900668	1	1	NaN	13	NaN	NaN	NaN	NaN	NaN	0.4	0
5	3	129	1	22	1	0.4	1	0	1	2	1350.76418702374	1	1	0	14	0.4	2	11	1	1	0.4	1
5	3	130	0	NaN	1	NaN	NaN	NaN	0.8	2	775.710293004522	1	1	NaN	15	NaN	NaN	NaN	NaN	NaN	1	1
5	3	131	0	NaN	1	NaN	NaN	NaN	0.8	1	888.518941006623	1	1	NaN	16	NaN	NaN	NaN	NaN	NaN	0.8	1
5	3	132	0	NaN	1	NaN	NaN	NaN	0.8	1	1013.95425299415	1	1	NaN	17	NaN	NaN	NaN	NaN	NaN	0.8	1
5	3	133	1	29	2	1	0	0	1	2	1036.46056802245	2	1	1	1	0.4	2	8	0.6	1	0.8	0
5	3	134	1	17	2	0.8	0	0	0.8	1	1041.45715298364	2	1	1	2	1	2	2	0	1	1	1
5	3	135	0	NaN	2	NaN	NaN	NaN	0.4	1	1070.21192699904	1	0	NaN	3	NaN	NaN	NaN	NaN	NaN	0.8	0
5	3	136	1	13	2	0.4	0	1	0.4	1	769.998453994049	2	1	1	4	0.8	2	8	0.8	0	0.4	0
5	3	137	1	10	2	0.4	0	1	0.4	1	1249.31372900028	2	1	1	5	0.4	2	12	0	0	0.4	1
5	3	138	1	10	2	0.4	1	0	0.4	2	1027.74520497769	1	0	1	6	0.4	1	13	0.4	0	0.4	0
5	3	139	0	NaN	2	NaN	NaN	NaN	0.6	2	749.511722009629	1	0	NaN	7	NaN	NaN	NaN	NaN	NaN	0.4	1
5	3	140	0	NaN	2	NaN	NaN	NaN	0.2	2	1096.80075501092	1	0	NaN	8	NaN	NaN	NaN	NaN	NaN	0.6	1
5	3	141	0	NaN	2	NaN	NaN	NaN	0.2	1	733.812513994053	2	1	NaN	9	NaN	NaN	NaN	NaN	NaN	0.2	0
5	3	142	0	NaN	2	NaN	NaN	NaN	0.6	1	1036.29712399561	2	1	NaN	10	NaN	NaN	NaN	NaN	NaN	0.2	1
5	3	143	0	NaN	2	NaN	NaN	NaN	0.8	2	618.155232979916	2	1	NaN	11	NaN	NaN	NaN	NaN	NaN	0.6	1
5	3	144	1	13	2	0.8	1	1	0.6	2	658.718877006322	2	1	0	12	0.2	1	16	0.8	0	0.8	1
5	3	145	1	10	2	0.4	1	0	0.8	1	879.875434009591	2	1	0	13	0.2	1	3	0.8	1	0.6	1
5	3	146	1	14	2	0.8	1	1	1	1	961.98519601603	2	1	0	14	0.2	1	17	0.8	0	0.8	1
5	3	147	0	NaN	2	NaN	NaN	NaN	0.2	1	1350.02127298503	2	1	NaN	15	NaN	NaN	NaN	NaN	NaN	1	1
5	3	148	0	NaN	2	NaN	NaN	NaN	0	1	1126.19524999172	1	0	NaN	16	NaN	NaN	NaN	NaN	NaN	0.2	0
5	3	149	0	NaN	2	NaN	NaN	NaN	1	1	1088.14367800369	2	1	NaN	17	NaN	NaN	NaN	NaN	NaN	0	0
5	3	150	1	10	2	0.2	1	0	0	1	1006.94667399512	2	1	0	18	0	1	8	0.6	1	1	1
5	3	151	1	10	1	0.2	1	0	0	1	NaN	1	1	0	1	0	2	9	0.2	1	0	0
5	3	152	1	10	1	0.6	1	1	0.6	2	866.813394008204	2	0	1	2	0	2	10	0.2	1	0	0
5	3	153	1	10	1	0.8	1	1	0.8	1	951.899126986973	2	0	1	3	0.6	2	11	0.6	1	0.6	1
5	3	154	1	15	1	0.6	0	0	0	1	1186.57808101852	2	0	0	4	0	1	7	0.4	0	0.8	1
5	3	155	0	NaN	1	NaN	NaN	NaN	1	1	985.661051992793	2	0	NaN	5	NaN	NaN	NaN	NaN	NaN	0	1
5	3	156	0	NaN	1	NaN	NaN	NaN	1	1	845.58549002395	2	0	NaN	6	NaN	NaN	NaN	NaN	NaN	1	1
5	3	157	1	10	1	0.2	1	0	0.2	2	1153.84404899669	2	0	1	7	1	2	15	1	0	1	1
5	3	158	0	NaN	1	NaN	NaN	NaN	0	2	741.42090298119	2	0	NaN	8	NaN	NaN	NaN	NaN	NaN	0.2	1
5	3	159	1	29	1	0.8	0	0	0.8	2	938.451627996983	1	1	1	9	0	1	15	1	1	0	0
5	3	160	0	NaN	1	NaN	NaN	NaN	0.2	2	666.122598981019	1	1	NaN	10	NaN	NaN	NaN	NaN	NaN	0.8	1
5	3	161	0	NaN	1	NaN	NaN	NaN	0.6	1	960.255448997486	1	1	NaN	11	NaN	NaN	NaN	NaN	NaN	0.2	1
5	3	162	0	NaN	1	NaN	NaN	NaN	1	2	761.718188005034	1	1	NaN	12	NaN	NaN	NaN	NaN	NaN	0.6	1
5	3	163	0	NaN	1	NaN	NaN	NaN	0.8	1	1330.50865199766	1	1	NaN	13	NaN	NaN	NaN	NaN	NaN	1	1
5	3	164	0	NaN	1	NaN	NaN	NaN	0.4	2	667.39577599219	1	1	NaN	14	NaN	NaN	NaN	NaN	NaN	0.8	1
5	3	165	1	17	1	0	0	1	0	1	546.333028993104	1	1	1	15	0.4	1	16	0.2	0	0.4	1
5	3	166	0	NaN	1	NaN	NaN	NaN	0.4	1	845.071068004472	1	1	NaN	16	NaN	NaN	NaN	NaN	NaN	0	1
5	3	167	1	12	1	1	1	1	1	1	973.799179977505	1	1	0	17	0	2	5	0	0	0.4	1
5	3	168	1	19	1	1	1	1	1	2	1143.63743801368	2	0	1	18	0	2	17	0	1	1	0
5	3	169	0	NaN	1	NaN	NaN	NaN	0.2	1	1372.70383199211	1	1	NaN	19	NaN	NaN	NaN	NaN	NaN	1	0
5	3	170	1	10	1	0.2	0	1	0	2	1492.67593299737	2	0	0	20	0.2	1	10	0.8	1	0.2	0
5	3	171	1	15	2	1	0	0	1	1	1226.45680999267	2	1	1	1	0	2	6	1	1	0	1
5	3	172	1	14	2	0	0	1	0	1	1080.49147200654	1	0	0	2	1	2	8	0.2	1	1	0
5	3	173	1	12	2	0.6	1	1	0.8	1	1331.47915499285	2	1	0	3	0	1	11	0.2	0	0	0
5	3	174	0	NaN	2	NaN	NaN	NaN	0.6	1	1274.04843800468	2	1	NaN	4	NaN	NaN	NaN	NaN	NaN	0.8	1
5	3	175	1	11	2	0.4	1	0	0.6	1	NaN	2	1	0	5	0	1	14	0.8	1	0.6	1
5	3	176	1	10	2	0.4	1	0	0.4	2	1132.19745800598	1	0	1	6	0	1	16	0	0	0.6	0
5	3	177	0	NaN	2	NaN	NaN	NaN	0.4	1	1210.78428800683	1	0	NaN	7	NaN	NaN	NaN	NaN	NaN	0.4	1
5	3	178	1	15	2	0.8	1	1	1	1	994.868244975805	2	1	0	8	0.4	1	13	1	0	0.4	0
5	3	179	1	10	2	0.2	1	0	0.8	2	1421.54331298661	2	1	0	9	0.4	1	19	1	1	1	1
5	3	180	0	NaN	2	NaN	NaN	NaN	0.2	1	1299.72548701335	2	1	NaN	10	NaN	NaN	NaN	NaN	NaN	0.8	1
5	4	181	0	NaN	2	NaN	NaN	NaN	1	1	1095.71362298448	2	1	NaN	11	NaN	NaN	NaN	NaN	NaN	0.2	1
5	4	182	0	NaN	2	NaN	NaN	NaN	1	2	1096.49229497882	2	1	NaN	12	NaN	NaN	NaN	NaN	NaN	1	1
5	4	183	0	NaN	2	NaN	NaN	NaN	0.8	2	989.368100999855	2	1	NaN	13	NaN	NaN	NaN	NaN	NaN	1	1
5	4	184	1	10	2	0.6	0	0	0.6	1	1092.57529999013	2	1	1	14	0.8	2	4	0.8	1	0.8	1
5	4	185	0	NaN	2	NaN	NaN	NaN	0.8	1	915.023445995757	2	1	NaN	15	NaN	NaN	NaN	NaN	NaN	0.6	1
5	4	186	0	NaN	2	NaN	NaN	NaN	0.4	1	949.613630014937	2	1	NaN	16	NaN	NaN	NaN	NaN	NaN	0.8	1
5	4	187	0	NaN	1	NaN	NaN	NaN	0.2	2	833.201800996903	2	0	NaN	1	NaN	NaN	NaN	NaN	NaN	0.4	1
5	4	188	1	11	1	0.4	0	1	0.4	2	703.740850993199	1	1	1	2	0.4	1	7	0.4	0	0.2	0
5	4	189	0	NaN	1	NaN	NaN	NaN	0.6	2	698.041727009695	1	1	NaN	3	NaN	NaN	NaN	NaN	NaN	0.4	1
5	4	190	1	10	1	0.2	1	0	0.2	1	1176.11250499613	2	0	1	4	0.2	2	10	0.8	0	0.6	0
5	4	191	1	10	1	1	1	1	1	1	763.091910019284	2	0	1	5	0.2	2	11	0.2	1	0.2	1
5	4	192	0	NaN	1	NaN	NaN	NaN	0.4	2	1144.27040700684	2	0	NaN	6	NaN	NaN	NaN	NaN	NaN	1	1
5	4	193	0	NaN	1	NaN	NaN	NaN	0.8	1	1091.57495299587	1	1	NaN	7	NaN	NaN	NaN	NaN	NaN	0.4	0
5	4	194	1	11	1	0.8	1	1	0.8	1	NaN	2	0	1	8	0.4	2	13	1	1	0.8	0
5	4	195	1	10	1	0.8	1	1	1	2	1155.55277798558	1	1	0	9	0.8	2	15	0.6	0	0.8	0
5	4	196	1	14	1	1	1	1	1	2	861.576246010372	2	0	1	10	0.8	2	12	1	1	1	0
5	4	197	1	10	1	0.2	1	0	0.6	1	1424.7279370029	1	1	0	11	1	2	1	0.4	1	1	0
5	4	198	0	NaN	1	NaN	NaN	NaN	0.6	1	1457.91866601212	2	0	NaN	12	NaN	NaN	NaN	NaN	NaN	0.6	0
5	4	199	1	13	1	0.4	1	0	0.4	1	898.59505800996	2	0	1	13	0.6	2	16	0.8	0	0.6	1
5	4	200	0	NaN	1	NaN	NaN	NaN	0.6	1	1045.16652101302	2	0	NaN	14	NaN	NaN	NaN	NaN	NaN	0.4	1
5	4	201	0	NaN	1	NaN	NaN	NaN	0.2	2	956.484135997016	2	0	NaN	15	NaN	NaN	NaN	NaN	NaN	0.6	1
5	4	202	0	NaN	1	NaN	NaN	NaN	0.2	1	767.700806027278	2	0	NaN	16	NaN	NaN	NaN	NaN	NaN	0.2	1
5	4	203	1	11	1	0.4	1	0	0.2	2	1080.83310700022	1	1	0	17	0.2	2	6	1	1	0.2	0
5	4	204	1	15	1	0.6	0	0	0.6	2	969.857949996367	1	1	1	18	0.2	1	3	0.4	1	0.2	1
5	4	205	0	NaN	1	NaN	NaN	NaN	1	1	843.309970980044	1	1	NaN	19	NaN	NaN	NaN	NaN	NaN	0.6	1
5	4	206	0	NaN	1	NaN	NaN	NaN	0.2	2	967.402490001405	1	1	NaN	20	NaN	NaN	NaN	NaN	NaN	1	1
5	4	207	0	NaN	1	NaN	NaN	NaN	0	1	1127.53805000102	2	0	NaN	21	NaN	NaN	NaN	NaN	NaN	0.2	0
5	4	208	0	NaN	1	NaN	NaN	NaN	0	1	1028.70562399039	1	1	NaN	22	NaN	NaN	NaN	NaN	NaN	0	0
5	4	209	0	NaN	1	NaN	NaN	NaN	1	2	836.284086981323	1	1	NaN	23	NaN	NaN	NaN	NaN	NaN	0	1
5	4	210	1	17	2	0.8	1	1	0.8	1	1083.08182400651	1	0	1	1	1	1	7	0.4	1	1	1
5	4	211	0	NaN	2	NaN	NaN	NaN	0	2	830.750900000567	1	0	NaN	2	NaN	NaN	NaN	NaN	NaN	0.8	1
5	4	212	0	NaN	2	NaN	NaN	NaN	0	2	881.326547008939	1	0	NaN	3	NaN	NaN	NaN	NaN	NaN	0	1
5	4	213	0	NaN	2	NaN	NaN	NaN	0.8	1	913.208740996197	2	1	NaN	4	NaN	NaN	NaN	NaN	NaN	0	0
5	4	214	0	NaN	2	NaN	NaN	NaN	1	2	748.946202016668	2	1	NaN	5	NaN	NaN	NaN	NaN	NaN	0.8	1
5	4	215	0	NaN	2	NaN	NaN	NaN	0.8	1	624.785770021845	2	1	NaN	6	NaN	NaN	NaN	NaN	NaN	1	1
5	4	216	0	NaN	2	NaN	NaN	NaN	0.8	2	931.247664993862	2	1	NaN	7	NaN	NaN	NaN	NaN	NaN	0.8	1
5	4	217	1	11	2	0.2	1	0	0.2	1	NaN	1	0	1	8	0	1	20	1	0	0.8	0
5	4	218	1	10	2	0	1	0	0.8	1	1442.74126499658	2	1	0	9	0.2	1	22	0	1	0.2	0
5	4	219	1	19	2	0.6	0	0	0.6	2	948.759389022598	2	1	1	10	0.8	2	14	0.4	1	0.8	1
5	4	220	1	22	2	0.6	0	0	0.6	2	977.476383995963	2	1	1	11	0.6	2	12	0.6	1	0.6	1
5	4	221	0	NaN	2	NaN	NaN	NaN	0.4	1	1212.54284298629	2	1	NaN	12	NaN	NaN	NaN	NaN	NaN	0.6	1
5	4	222	1	10	2	0	1	0	0	2	787.265919992933	1	0	1	13	0.2	1	3	0	0	0.4	0
5	4	223	1	12	2	0	1	0	0.8	2	1087.10680500371	2	1	0	14	0	1	2	0.8	1	0	0
5	4	224	1	11	2	0.8	0	0	0.8	2	813.902976980899	2	1	1	15	0.8	2	4	0	1	0.8	1
5	4	225	1	10	2	0.8	0	0	0.8	1	791.799925005762	2	1	1	16	0.8	2	6	1	1	0.8	1
5	4	226	1	10	2	0.8	0	0	0.8	2	858.410654996987	2	1	1	17	0.8	2	7	0.8	1	0.8	1
5	4	227	1	13	2	1	0	0	1	1	935.010552988388	2	1	1	18	0.8	2	5	0.8	1	0.8	1
5	4	228	0	NaN	2	NaN	NaN	NaN	0	1	766.975052974885	2	1	NaN	19	NaN	NaN	NaN	NaN	NaN	1	1
5	4	229	0	NaN	2	NaN	NaN	NaN	0.4	2	629.187226993963	2	1	NaN	20	NaN	NaN	NaN	NaN	NaN	0	1
5	4	230	0	NaN	1	NaN	NaN	NaN	0.8	1	797.210377990268	2	0	NaN	1	NaN	NaN	NaN	NaN	NaN	0.4	1
5	4	231	0	NaN	1	NaN	NaN	NaN	0	2	814.814423007192	2	0	NaN	2	NaN	NaN	NaN	NaN	NaN	0.8	1
5	4	232	0	NaN	1	NaN	NaN	NaN	0.2	2	679.99835399678	2	0	NaN	3	NaN	NaN	NaN	NaN	NaN	0	1
5	4	233	1	26	1	0	1	0	1	1	669.99515198404	1	1	0	4	0.2	2	21	0.2	1	0.2	0
5	4	234	0	NaN	1	NaN	NaN	NaN	0.6	1	1199.15968400892	1	1	NaN	5	NaN	NaN	NaN	NaN	NaN	1	1
5	4	235	0	NaN	1	NaN	NaN	NaN	0.6	1	1027.02488200157	1	1	NaN	6	NaN	NaN	NaN	NaN	NaN	0.6	1
5	4	236	0	NaN	1	NaN	NaN	NaN	1	1	917.725109000457	1	1	NaN	7	NaN	NaN	NaN	NaN	NaN	0.6	1
5	4	237	1	16	1	0.4	1	0	1	1	993.113049014937	1	1	0	8	0.2	2	12	0.6	1	1	1
5	4	238	0	NaN	1	NaN	NaN	NaN	0.2	1	1362.39242801093	1	1	NaN	9	NaN	NaN	NaN	NaN	NaN	1	1
5	4	239	1	11	1	0	1	0	0.8	2	1227.76035999414	1	1	0	10	0.2	2	19	1	1	0.2	1
5	4	240	0	NaN	1	NaN	NaN	NaN	0.4	2	1142.88152102381	1	1	NaN	11	NaN	NaN	NaN	NaN	NaN	0.8	1
5	5	241	0	NaN	1	NaN	NaN	NaN	1	1	1026.67880497756	1	1	NaN	12	NaN	NaN	NaN	NaN	NaN	0.4	1
5	5	242	0	NaN	1	NaN	NaN	NaN	0	2	751.22099701548	1	1	NaN	13	NaN	NaN	NaN	NaN	NaN	1	1
5	5	243	0	NaN	1	NaN	NaN	NaN	1	2	799.096508009825	1	1	NaN	14	NaN	NaN	NaN	NaN	NaN	0	1
5	5	244	1	14	1	0.8	1	1	0.8	2	1128.42508900212	1	1	0	15	0.2	2	1	0.4	0	1	1
5	5	245	0	NaN	1	NaN	NaN	NaN	0.6	1	1011.72395300819	1	1	NaN	16	NaN	NaN	NaN	NaN	NaN	0.8	1
5	5	246	0	NaN	1	NaN	NaN	NaN	1	2	878.431494988035	1	1	NaN	17	NaN	NaN	NaN	NaN	NaN	0.6	1
5	5	247	0	NaN	1	NaN	NaN	NaN	0.6	1	1255.07429701975	1	1	NaN	18	NaN	NaN	NaN	NaN	NaN	1	1
5	5	248	1	10	1	0.2	0	1	0.2	2	647.41425801185	1	1	1	19	0.6	1	9	1	0	0.6	1
5	5	249	1	18	1	0	1	0	1	2	603.057239990449	1	1	0	20	0.2	2	2	0.8	1	0.2	1
5	5	250	1	10	1	0.4	0	1	0.4	2	763.951228989754	1	1	1	21	1	1	11	0.8	0	1	1
5	5	251	1	19	2	0.2	0	1	0.4	2	1063.6879770027	1	0	0	1	0.2	2	3	0	1	0.4	1
5	5	252	0	NaN	2	NaN	NaN	NaN	0.6	2	748.16963399644	2	1	NaN	2	NaN	NaN	NaN	NaN	NaN	0.4	0
5	5	253	1	11	2	0	1	0	0.6	2	647.613540000748	2	1	0	3	0.4	1	13	1	1	0.6	1
5	5	254	0	NaN	2	NaN	NaN	NaN	1	2	1107.47049699421	2	1	NaN	4	NaN	NaN	NaN	NaN	NaN	0.6	1
5	5	255	0	NaN	2	NaN	NaN	NaN	0.8	1	845.445154001936	2	1	NaN	5	NaN	NaN	NaN	NaN	NaN	1	1
5	5	256	1	11	2	0.6	1	1	0.6	1	986.161337990779	2	1	0	6	0.4	1	16	0.8	0	0.8	1
5	5	257	1	28	2	0.4	0	1	0.4	2	647.351143998094	2	1	1	7	0.6	2	20	0	0	0.6	1
5	5	258	0	NaN	2	NaN	NaN	NaN	1	1	1074.80901901727	2	1	NaN	8	NaN	NaN	NaN	NaN	NaN	0.4	1
5	5	259	1	25	2	0.6	1	1	0.2	1	645.821679005167	2	1	0	9	0.4	1	5	1	0	1	1
5	5	260	0	NaN	2	NaN	NaN	NaN	1	2	931.81749098585	2	1	NaN	10	NaN	NaN	NaN	NaN	NaN	0.2	1
5	5	261	1	14	2	0.6	1	1	0	1	693.178515997715	2	1	0	11	0.4	1	18	1	0	1	1
5	5	262	0	NaN	2	NaN	NaN	NaN	1	1	1011.52525399812	2	1	NaN	12	NaN	NaN	NaN	NaN	NaN	0	1
5	5	263	0	NaN	2	NaN	NaN	NaN	0.4	2	716.490139981033	2	1	NaN	13	NaN	NaN	NaN	NaN	NaN	1	1
5	5	264	1	10	2	1	0	0	1	2	837.913572002435	2	1	1	14	0.4	2	4	0.6	1	0.4	1
5	5	265	0	NaN	2	NaN	NaN	NaN	0.4	1	758.136850985466	2	1	NaN	15	NaN	NaN	NaN	NaN	NaN	1	1
5	5	266	0	NaN	2	NaN	NaN	NaN	0	2	968.087496003136	1	0	NaN	16	NaN	NaN	NaN	NaN	NaN	0.4	0
5	5	267	0	NaN	2	NaN	NaN	NaN	0.8	1	990.273443982005	2	1	NaN	17	NaN	NaN	NaN	NaN	NaN	0	0
5	5	268	0	NaN	1	NaN	NaN	NaN	0	2	690.439309983049	2	0	NaN	1	NaN	NaN	NaN	NaN	NaN	0.8	1
5	5	269	0	NaN	1	NaN	NaN	NaN	0.4	1	1250.19185902784	2	0	NaN	2	NaN	NaN	NaN	NaN	NaN	0	1
5	5	270	0	NaN	1	NaN	NaN	NaN	0.8	2	632.15561301331	1	1	NaN	3	NaN	NaN	NaN	NaN	NaN	0.4	0
5	5	271	0	NaN	1	NaN	NaN	NaN	0.2	2	901.38581598876	1	1	NaN	4	NaN	NaN	NaN	NaN	NaN	0.8	1
5	5	272	1	20	1	0.6	1	1	1	2	526.03476101649	1	1	0	5	0.4	2	2	0.4	0	0.2	1
5	5	273	1	18	1	0.8	1	1	0	1	1226.15953101194	1	1	0	6	0.4	2	5	1	0	1	1
5	5	274	0	NaN	1	NaN	NaN	NaN	0.8	2	839.761682000244	1	1	NaN	7	NaN	NaN	NaN	NaN	NaN	0	1
5	5	275	1	15	1	1	1	1	0.8	1	581.653924979037	1	1	0	8	0.4	2	10	0.2	0	0.8	1
5	5	276	1	10	1	0	0	1	0	2	1200.92476697755	1	1	1	9	0.8	1	16	0.4	0	0.8	1
5	5	277	0	NaN	1	NaN	NaN	NaN	1	2	830.018153006677	1	1	NaN	10	NaN	NaN	NaN	NaN	NaN	0	1
5	5	278	1	11	1	0.8	1	1	0.4	1	843.454946007114	1	1	0	11	0.4	2	17	0	0	1	1
5	5	279	0	NaN	1	NaN	NaN	NaN	1	1	1347.7805009752	1	1	NaN	12	NaN	NaN	NaN	NaN	NaN	0.4	1
5	5	280	1	18	1	1	1	1	0.8	1	941.303408995736	1	1	0	13	0.4	2	12	0	0	1	1
5	5	281	1	10	1	0.2	0	1	0.2	1	791.425949981203	1	1	1	14	0.8	1	4	0.8	0	0.8	1
5	5	282	1	14	1	0	1	0	0	2	1008.0420000013	2	0	1	15	0.4	2	1	0.8	0	0.2	0
5	5	283	1	14	1	0.4	1	0	0.8	1	1231.79134598467	1	1	0	16	0	2	2	0	1	0	0
5	5	284	1	26	2	1	0	0	1	1	NaN	2	1	1	1	0	2	8	0.4	1	0.8	0
5	5	285	0	NaN	2	NaN	NaN	NaN	0.6	2	1009.44799400168	2	1	NaN	2	NaN	NaN	NaN	NaN	NaN	1	1
5	5	286	1	21	2	0.4	0	1	0.4	1	1294.13198499242	2	1	1	3	0.6	2	15	1	0	0.6	1
5	5	287	0	NaN	2	NaN	NaN	NaN	0.2	1	NaN	1	0	NaN	4	NaN	NaN	NaN	NaN	NaN	0.4	0
5	5	288	1	25	2	0.4	0	1	0.6	2	1375.9718920046	1	0	0	5	0.4	2	13	1	1	0.2	1
5	5	289	0	NaN	2	NaN	NaN	NaN	0.2	2	896.876737009734	1	0	NaN	6	NaN	NaN	NaN	NaN	NaN	0.6	1
5	5	290	0	NaN	2	NaN	NaN	NaN	0.4	1	823.952821025159	1	0	NaN	7	NaN	NaN	NaN	NaN	NaN	0.2	1
5	5	291	0	NaN	2	NaN	NaN	NaN	0.6	1	547.790270007681	2	1	NaN	8	NaN	NaN	NaN	NaN	NaN	0.4	0
5	5	292	0	NaN	2	NaN	NaN	NaN	0	2	533.527301013237	1	0	NaN	9	NaN	NaN	NaN	NaN	NaN	0.6	0
5	5	293	0	NaN	2	NaN	NaN	NaN	0.6	1	632.70429399563	1	0	NaN	10	NaN	NaN	NaN	NaN	NaN	0	1
5	5	294	0	NaN	2	NaN	NaN	NaN	0.4	2	603.193276008824	1	0	NaN	11	NaN	NaN	NaN	NaN	NaN	0.6	1
5	5	295	1	10	2	0.6	0	0	0.6	2	937.81622100505	2	1	1	12	0.6	2	2	1	1	0.4	0
5	5	296	0	NaN	2	NaN	NaN	NaN	0	1	NaN	1	0	NaN	13	NaN	NaN	NaN	NaN	NaN	0.6	0
5	5	297	0	NaN	2	NaN	NaN	NaN	0.8	2	773.96635999321	2	1	NaN	14	NaN	NaN	NaN	NaN	NaN	0	0
5	5	298	0	NaN	2	NaN	NaN	NaN	1	1	742.183944006683	2	1	NaN	15	NaN	NaN	NaN	NaN	NaN	0.8	1
5	5	299	1	12	2	0.2	1	0	0.8	2	766.662798996549	2	1	0	16	0	1	4	0.4	1	1	1
5	5	300	0	NaN	2	NaN	NaN	NaN	1	2	939.750279008877	2	1	NaN	17	NaN	NaN	NaN	NaN	NaN	0.8	1
6	1	1	0	NaN	1	NaN	NaN	NaN	0.8	2	835.865536995698	1	1	NaN	1	NaN	NaN	NaN	NaN	NaN	NaN	NaN
6	1	2	0	NaN	1	NaN	NaN	NaN	1	2	637.885565985925	1	1	NaN	2	NaN	NaN	NaN	NaN	NaN	0.8	1
6	1	3	0	NaN	1	NaN	NaN	NaN	0.6	1	938.721817976329	1	1	NaN	3	NaN	NaN	NaN	NaN	NaN	1	1
6	1	4	0	NaN	1	NaN	NaN	NaN	0.4	1	1253.17446998088	1	1	NaN	4	NaN	NaN	NaN	NaN	NaN	0.6	1
6	1	5	0	NaN	1	NaN	NaN	NaN	0	2	970.189320971258	1	1	NaN	5	NaN	NaN	NaN	NaN	NaN	0.4	1
6	1	6	0	NaN	1	NaN	NaN	NaN	0.2	1	1239.13310596254	1	1	NaN	6	NaN	NaN	NaN	NaN	NaN	0	1
6	1	7	0	NaN	1	NaN	NaN	NaN	0	2	1430.24732900085	2	0	NaN	7	NaN	NaN	NaN	NaN	NaN	0.2	0
6	1	8	0	NaN	1	NaN	NaN	NaN	0.4	1	1410.57612601435	2	0	NaN	8	NaN	NaN	NaN	NaN	NaN	0	1
6	1	9	0	NaN	1	NaN	NaN	NaN	NaN	NaN	NaN	NaN	NaN	NaN	9	NaN	NaN	NaN	NaN	NaN	0.4	0
6	1	10	0	NaN	1	NaN	NaN	NaN	0.6	2	655.034739989787	2	0	NaN	10	NaN	NaN	NaN	NaN	NaN	NaN	0
6	1	11	0	NaN	1	NaN	NaN	NaN	0.6	1	713.106689974666	2	0	NaN	11	NaN	NaN	NaN	NaN	NaN	0.6	1
6	1	12	1	11	1	0.8	0	0	0.2	2	478.760541998781	2	0	0	12	0.2	1	1	1	0	0.6	1
6	1	13	1	10	1	0.6	0	0	0.6	2	1069.86183900153	1	1	1	13	0.2	1	3	1	1	0.2	0
6	1	14	0	NaN	1	NaN	NaN	NaN	1	1	1265.37042704877	1	1	NaN	14	NaN	NaN	NaN	NaN	NaN	0.6	1
6	1	15	1	10	1	0	0	1	0	2	799.711138999555	1	1	1	15	1	1	5	0.4	0	1	1
6	1	16	0	NaN	1	NaN	NaN	NaN	0	2	1181.95809901226	2	0	NaN	16	NaN	NaN	NaN	NaN	NaN	0	0
6	1	17	0	NaN	1	NaN	NaN	NaN	1	1	630.896497983485	1	1	NaN	17	NaN	NaN	NaN	NaN	NaN	0	0
6	1	18	1	12	1	0.2	0	1	0.2	1	604.641441022977	1	1	1	18	1	1	6	0	0	1	1
6	1	19	0	NaN	2	NaN	NaN	NaN	0.2	2	587.350164016243	1	0	NaN	1	NaN	NaN	NaN	NaN	NaN	0.2	1
6	1	20	0	NaN	2	NaN	NaN	NaN	0.2	2	880.356574023608	1	0	NaN	2	NaN	NaN	NaN	NaN	NaN	0.2	1
6	1	21	1	17	2	0.4	1	0	1	2	646.51710196631	2	1	0	3	0.2	1	4	0.6	1	0.2	0
6	1	22	0	NaN	2	NaN	NaN	NaN	0.4	1	590.974988997914	2	1	NaN	4	NaN	NaN	NaN	NaN	NaN	1	1
6	1	23	0	NaN	2	NaN	NaN	NaN	0.6	1	603.260508971289	1	0	NaN	5	NaN	NaN	NaN	NaN	NaN	0.4	0
6	1	24	1	10	2	1	1	1	0.4	2	683.4844580153	2	1	0	6	0.6	1	14	0.6	0	0.6	0
6	1	25	0	NaN	2	NaN	NaN	NaN	0.2	1	608.714549045544	2	1	NaN	7	NaN	NaN	NaN	NaN	NaN	0.4	1
6	1	26	0	NaN	2	NaN	NaN	NaN	0.8	2	661.543450958561	2	1	NaN	8	NaN	NaN	NaN	NaN	NaN	0.2	1
6	1	27	0	NaN	2	NaN	NaN	NaN	0.8	2	738.366110948846	2	1	NaN	9	NaN	NaN	NaN	NaN	NaN	0.8	1
6	1	28	1	18	2	0.6	0	0	0.6	2	982.03008400742	2	1	1	10	0.8	2	10	NaN	1	0.8	1
6	1	29	1	10	2	0.2	1	0	0.8	1	1402.08226797404	2	1	0	11	0.6	1	1	0.2	1	0.6	1
6	1	30	1	19	2	0.6	0	0	0.6	1	987.252134014852	2	1	1	12	0.8	2	11	0.6	1	0.8	1
6	1	31	0	NaN	2	NaN	NaN	NaN	0.4	2	829.856859985739	1	0	NaN	13	NaN	NaN	NaN	NaN	NaN	0.6	0
6	1	32	1	12	2	0.2	1	0	0.8	2	500.804553041235	2	1	0	14	0.4	1	2	0.2	1	0.4	0
6	1	33	1	25	2	0.4	0	1	0.4	1	541.53495997889	2	1	1	15	0.8	2	8	0	0	0.8	1
6	1	34	1	27	2	0	0	1	0	1	510.055839025881	2	1	1	16	0.4	2	7	0.2	0	0.4	1
6	1	35	1	18	2	1	1	1	1	1	874.997053993866	1	0	1	17	0.4	1	17	0	1	0	0
6	1	36	0	NaN	1	NaN	NaN	NaN	1	1	953.214207023848	1	1	NaN	1	NaN	NaN	NaN	NaN	NaN	1	1
6	1	37	1	11	1	0.8	1	1	0.4	2	789.203010965139	1	1	0	2	0	2	8	0.2	0	1	1
6	1	38	1	11	1	0.8	1	1	1	1	690.342871006578	1	1	0	3	0	2	9	0.8	0	0.4	1
6	1	39	0	NaN	1	NaN	NaN	NaN	1	2	638.905089988839	1	1	NaN	4	NaN	NaN	NaN	NaN	NaN	1	1
6	1	40	0	NaN	1	NaN	NaN	NaN	0.2	2	724.687710986473	1	1	NaN	5	NaN	NaN	NaN	NaN	NaN	1	1
6	1	41	1	10	1	0.4	0	1	0.6	1	754.183936980553	2	0	0	6	0.2	1	13	0.6	1	0.2	0
6	1	42	1	19	1	0.6	0	0	0.6	2	1196.41704700189	2	0	0	7	0.2	1	5	0.4	0	0.6	1
6	1	43	1	27	1	0	1	0	0.8	1	827.896703965962	1	1	0	8	0.6	2	16	0	1	0.6	0
6	1	44	0	NaN	1	NaN	NaN	NaN	0.2	2	863.759238971397	2	0	NaN	9	NaN	NaN	NaN	NaN	NaN	0.8	0
6	1	45	0	NaN	1	NaN	NaN	NaN	0.8	2	680.639956961386	1	1	NaN	10	NaN	NaN	NaN	NaN	NaN	0.2	0
6	1	46	0	NaN	1	NaN	NaN	NaN	0.6	1	592.152445984539	1	1	NaN	11	NaN	NaN	NaN	NaN	NaN	0.8	1
6	1	47	0	NaN	1	NaN	NaN	NaN	0.2	1	1000.45787700219	1	1	NaN	12	NaN	NaN	NaN	NaN	NaN	0.6	1
6	1	48	1	23	1	0.2	1	0	0.2	2	629.944830026943	2	0	1	13	0.2	2	7	0.4	0	0.2	0
6	1	49	1	13	1	1	0	0	1	2	1008.54673795402	1	1	1	14	0.2	1	1	1	1	0.2	0
6	1	50	0	NaN	1	NaN	NaN	NaN	0.2	2	872.156883997377	1	1	NaN	15	NaN	NaN	NaN	NaN	NaN	1	1
6	1	51	1	12	1	1	0	0	0	1	1395.46511496883	2	0	0	16	0.2	1	4	1	0	0.2	0
6	1	52	0	NaN	1	NaN	NaN	NaN	0.6	1	1285.13191902312	1	1	NaN	17	NaN	NaN	NaN	NaN	NaN	0	0
6	1	53	0	NaN	1	NaN	NaN	NaN	0	2	1158.90805999516	2	0	NaN	18	NaN	NaN	NaN	NaN	NaN	0.6	0
6	1	54	0	NaN	1	NaN	NaN	NaN	0	1	876.530180044938	1	1	NaN	19	NaN	NaN	NaN	NaN	NaN	0	0
6	1	55	1	15	1	0.2	0	1	0.2	1	903.4955810057	1	1	1	20	0	1	5	1	0	0	1
6	1	56	0	NaN	1	NaN	NaN	NaN	0	2	1246.35897995904	1	1	NaN	21	NaN	NaN	NaN	NaN	NaN	0.2	1
6	1	57	1	10	1	0.2	0	1	0.6	2	1097.56047197152	2	0	0	22	0	1	12	0.6	1	0	0
6	1	58	0	NaN	1	NaN	NaN	NaN	0.2	1	822.749319020659	2	0	NaN	23	NaN	NaN	NaN	NaN	NaN	0.6	1
6	1	59	0	NaN	1	NaN	NaN	NaN	0.4	1	698.442744964268	2	0	NaN	24	NaN	NaN	NaN	NaN	NaN	0.2	1
6	1	60	1	10	2	0.2	1	0	0.4	1	824.79060604237	2	1	0	1	0	1	15	1	1	0.4	1
6	2	61	0	NaN	2	NaN	NaN	NaN	0.4	1	861.630344996229	1	0	NaN	2	NaN	NaN	NaN	NaN	NaN	0.4	0
6	2	62	1	16	2	0.6	1	1	0.6	2	528.458709013648	1	0	1	3	0.4	1	11	0.8	1	0.4	1
6	2	63	0	NaN	2	NaN	NaN	NaN	1	1	742.527630005497	1	0	NaN	4	NaN	NaN	NaN	NaN	NaN	0.6	1
6	2	64	1	10	2	0	1	0	0	2	574.998430034611	1	0	1	5	1	1	19	0	0	1	1
6	2	65	0	NaN	2	NaN	NaN	NaN	0.2	1	645.051016996149	1	0	NaN	6	NaN	NaN	NaN	NaN	NaN	0	1
6	2	66	1	10	2	0	1	0	0	1	851.936097955331	1	0	1	7	0.2	1	21	0.2	0	0.2	1
6	2	67	0	NaN	2	NaN	NaN	NaN	1	2	1000.90720801381	2	1	NaN	8	NaN	NaN	NaN	NaN	NaN	0	0
6	2	68	0	NaN	2	NaN	NaN	NaN	0.8	2	1024.52408801764	2	1	NaN	9	NaN	NaN	NaN	NaN	NaN	1	1
6	2	69	1	16	2	0	0	1	0	1	624.611722014379	2	1	1	10	0.8	2	18	0.6	0	0.8	1
6	2	70	1	12	2	0.2	0	1	0.2	1	835.634131042752	2	1	1	11	0	2	23	0.6	0	0	1
6	2	71	0	NaN	2	NaN	NaN	NaN	0.4	2	680.871796037536	2	1	NaN	12	NaN	NaN	NaN	NaN	NaN	0.2	1
6	2	72	1	13	2	0.4	0	1	0.2	1	665.700525976717	1	0	0	13	0.4	2	24	0.2	1	0.4	0
6	2	73	0	NaN	2	NaN	NaN	NaN	0.6	2	788.893897959497	1	0	NaN	14	NaN	NaN	NaN	NaN	NaN	0.2	1
6	2	74	1	11	2	1	1	1	1	2	612.136668991297	1	0	1	15	0.6	1	4	0.6	1	0.6	1
6	2	75	0	NaN	2	NaN	NaN	NaN	0	2	971.485197020229	1	0	NaN	16	NaN	NaN	NaN	NaN	NaN	1	1
6	2	76	0	NaN	1	NaN	NaN	NaN	1	2	678.762623982038	1	1	NaN	1	NaN	NaN	NaN	NaN	NaN	0	1
6	2	77	0	NaN	1	NaN	NaN	NaN	0.8	1	616.57702899538	1	1	NaN	2	NaN	NaN	NaN	NaN	NaN	1	1
6	2	78	0	NaN	1	NaN	NaN	NaN	1	1	569.44397999905	1	1	NaN	3	NaN	NaN	NaN	NaN	NaN	0.8	1
6	2	79	0	NaN	1	NaN	NaN	NaN	0.8	1	792.92825399898	1	1	NaN	4	NaN	NaN	NaN	NaN	NaN	1	1
6	2	80	0	NaN	1	NaN	NaN	NaN	1	2	841.173788008746	1	1	NaN	5	NaN	NaN	NaN	NaN	NaN	0.8	1
6	2	81	0	NaN	1	NaN	NaN	NaN	0.8	1	530.347464024089	1	1	NaN	6	NaN	NaN	NaN	NaN	NaN	1	1
6	2	82	1	14	1	0.8	1	1	0.2	2	529.89206899656	1	1	0	7	0.4	2	9	1	0	0.8	1
6	2	83	0	NaN	1	NaN	NaN	NaN	0.6	1	1005.04696101416	1	1	NaN	8	NaN	NaN	NaN	NaN	NaN	0.2	1
6	2	84	1	19	1	0.2	0	1	0.2	2	1122.28058202891	1	1	1	9	0.6	1	6	0	0	0.6	1
6	2	85	1	18	1	1	1	1	1	1	729.630769987125	2	0	1	10	0.4	2	8	0	1	0.2	0
6	2	86	0	NaN	1	NaN	NaN	NaN	0	2	1002.46864004293	2	0	NaN	11	NaN	NaN	NaN	NaN	NaN	1	1
6	2	87	1	26	1	0.4	0	1	0	1	635.149148991331	2	0	0	12	0.2	1	2	0.4	1	0	1
6	2	88	0	NaN	1	NaN	NaN	NaN	0.2	1	1001.81993603474	2	0	NaN	13	NaN	NaN	NaN	NaN	NaN	0	1
6	2	89	1	14	1	0	0	1	0	1	688.644842011854	1	1	1	14	0.2	1	16	1	0	0.2	0
6	2	90	1	14	1	1	0	0	1	2	855.048579978757	1	1	1	15	0	1	1	0	1	0	1
6	2	91	0	NaN	1	NaN	NaN	NaN	1	1	1444.70574596198	1	1	NaN	16	NaN	NaN	NaN	NaN	NaN	1	1
6	2	92	1	19	1	0.6	0	0	0.6	1	921.243067015894	1	1	1	17	1	1	14	0.2	1	1	1
6	2	93	0	NaN	1	NaN	NaN	NaN	0.8	2	847.170369990636	1	1	NaN	18	NaN	NaN	NaN	NaN	NaN	0.6	1
6	2	94	1	11	1	0.6	0	0	0.6	2	911.764418997336	1	1	1	19	0.8	1	8	0.2	1	0.8	1
6	2	95	0	NaN	1	NaN	NaN	NaN	1	1	703.752094996162	1	1	NaN	20	NaN	NaN	NaN	NaN	NaN	0.6	1
6	2	96	0	NaN	1	NaN	NaN	NaN	0.8	2	656.157727993559	1	1	NaN	21	NaN	NaN	NaN	NaN	NaN	1	1
6	2	97	1	19	2	1	1	1	1	1	913.016133010387	1	0	1	1	0.8	1	3	0.8	1	0.8	1
6	2	98	0	NaN	2	NaN	NaN	NaN	NaN	NaN	NaN	NaN	NaN	NaN	2	NaN	NaN	NaN	NaN	NaN	1	0
6	2	99	0	NaN	2	NaN	NaN	NaN	0.4	1	722.677238984033	2	1	NaN	3	NaN	NaN	NaN	NaN	NaN	NaN	0
6	2	100	1	21	2	0.8	1	1	0.8	2	711.494565999601	1	0	1	4	1	1	4	1	1	0.4	0
6	2	101	0	NaN	2	NaN	NaN	NaN	0.6	2	824.116879026406	1	0	NaN	5	NaN	NaN	NaN	NaN	NaN	0.8	1
6	2	102	1	16	2	0	0	1	0	1	846.198743965942	1	0	0	6	0.4	2	11	1	1	0.6	1
6	2	103	0	NaN	2	NaN	NaN	NaN	0	1	813.700121012516	1	0	NaN	7	NaN	NaN	NaN	NaN	NaN	0	1
6	2	104	1	23	2	0.8	1	1	0.2	1	860.524035990238	2	1	0	8	0	1	6	1	0	0	0
6	2	105	0	NaN	2	NaN	NaN	NaN	0.8	2	691.410613013431	2	1	NaN	9	NaN	NaN	NaN	NaN	NaN	0.2	1
6	2	106	0	NaN	2	NaN	NaN	NaN	0.4	2	565.915179962758	2	1	NaN	10	NaN	NaN	NaN	NaN	NaN	0.8	1
6	2	107	0	NaN	2	NaN	NaN	NaN	0.8	2	775.105734996032	2	1	NaN	11	NaN	NaN	NaN	NaN	NaN	0.4	1
6	2	108	0	NaN	2	NaN	NaN	NaN	1	1	547.841152991168	2	1	NaN	12	NaN	NaN	NaN	NaN	NaN	0.8	1
6	2	109	1	16	2	0.8	1	1	0.6	1	536.35413502343	2	1	0	13	0	1	18	0.6	0	1	1
6	2	110	1	15	2	1	1	1	0.8	1	659.839804982767	2	1	0	14	0	1	20	0.6	0	0.6	1
6	2	111	0	NaN	2	NaN	NaN	NaN	0.6	1	542.283040995244	2	1	NaN	15	NaN	NaN	NaN	NaN	NaN	0.8	1
6	2	112	0	NaN	2	NaN	NaN	NaN	0.6	2	616.939208994154	1	0	NaN	16	NaN	NaN	NaN	NaN	NaN	0.6	0
6	2	113	0	NaN	2	NaN	NaN	NaN	0.2	1	770.445341011509	1	0	NaN	17	NaN	NaN	NaN	NaN	NaN	0.6	1
6	2	114	0	NaN	2	NaN	NaN	NaN	0	1	513.248483010102	1	0	NaN	18	NaN	NaN	NaN	NaN	NaN	0.2	1
6	2	115	1	12	2	0	1	0	0.2	1	467.503828986082	2	1	0	19	0	1	7	0	1	0	0
6	2	116	1	11	2	0.8	0	0	0.8	2	577.174597012345	2	1	1	20	0.2	2	9	0.2	1	0.2	1
6	2	117	1	10	1	0.8	1	1	0.8	2	574.232557963114	2	0	1	1	0.8	2	11	0.4	1	0.8	1
6	2	118	0	NaN	1	NaN	NaN	NaN	0	1	825.554511044174	2	0	NaN	2	NaN	NaN	NaN	NaN	NaN	0.8	1
6	2	119	1	11	1	1	1	1	1	2	768.092890037224	2	0	1	3	0	2	12	0.8	1	0	1
6	2	120	1	21	1	0.4	1	0	0.4	1	536.577649996616	2	0	1	4	1	2	3	NaN	0	1	1
6	3	121	1	10	1	0.6	1	1	0.6	1	956.028063956182	2	0	1	5	0.4	2	15	0.8	1	0.4	1
6	3	122	1	16	1	0.4	1	0	0.4	1	958.001197024714	2	0	1	6	0.6	2	10	0.8	0	0.6	1
6	3	123	0	NaN	1	NaN	NaN	NaN	0.2	1	604.059075005352	2	0	NaN	7	NaN	NaN	NaN	NaN	NaN	0.4	1
6	3	124	1	11	1	0.2	0	1	0.2	2	504.391352005769	1	1	1	8	0	1	17	0.6	0	0.2	0
6	3	125	1	24	1	0.6	0	0	0.6	2	676.344051025808	1	1	1	9	0.2	1	5	0.8	1	0.2	1
6	3	126	0	NaN	1	NaN	NaN	NaN	0.4	2	774.574820010457	1	1	NaN	10	NaN	NaN	NaN	NaN	NaN	0.6	1
6	3	127	0	NaN	1	NaN	NaN	NaN	0.8	2	619.560146995354	1	1	NaN	11	NaN	NaN	NaN	NaN	NaN	0.4	1
6	3	128	1	10	1	0	1	0	0.8	2	700.070884020533	1	1	0	12	0.2	2	2	0.8	1	0.8	1
6	3	129	0	NaN	1	NaN	NaN	NaN	1	1	661.101384030189	1	1	NaN	13	NaN	NaN	NaN	NaN	NaN	0.8	1
6	3	130	0	NaN	1	NaN	NaN	NaN	0.4	2	627.152938977815	1	1	NaN	14	NaN	NaN	NaN	NaN	NaN	1	1
6	3	131	1	19	1	0.6	0	0	0.6	1	669.552048027981	1	1	1	15	0.4	1	16	0.6	1	0.4	1
6	3	132	0	NaN	1	NaN	NaN	NaN	0.8	1	590.078724955674	1	1	NaN	16	NaN	NaN	NaN	NaN	NaN	0.6	1
6	3	133	0	NaN	2	NaN	NaN	NaN	0.4	2	711.371383978985	1	0	NaN	1	NaN	NaN	NaN	NaN	NaN	0.8	1
6	3	134	0	NaN	2	NaN	NaN	NaN	0.8	1	717.827534012031	1	0	NaN	2	NaN	NaN	NaN	NaN	NaN	0.4	1
6	3	135	0	NaN	2	NaN	NaN	NaN	0.4	1	695.149600040168	1	0	NaN	3	NaN	NaN	NaN	NaN	NaN	0.8	1
6	3	136	1	22	2	0	1	0	0	1	728.467411012389	1	0	1	4	0.4	1	18	0.2	0	0.4	1
6	3	137	1	11	2	0.4	1	0	0.4	1	1032.16285898816	1	0	1	5	0	1	10	0.6	0	0	1
6	3	138	1	15	2	0.2	0	1	0.2	2	937.093011976685	2	1	1	6	0.2	2	7	0.4	0	0.4	0
6	3	139	1	12	2	0.8	1	1	0.8	1	975.489425007254	2	1	0	7	0.4	1	11	0.4	0	0.2	1
6	3	140	1	10	2	0.4	1	0	0.4	2	970.521726994775	1	0	1	8	0.4	1	14	1	0	0.8	0
6	3	141	0	NaN	2	NaN	NaN	NaN	1	1	921.734963019844	2	1	NaN	9	NaN	NaN	NaN	NaN	NaN	0.4	0
6	3	142	0	NaN	2	NaN	NaN	NaN	0.6	1	506.377256009728	2	1	NaN	10	NaN	NaN	NaN	NaN	NaN	1	1
6	3	143	1	10	2	0.4	1	0	0	2	662.522786005866	2	1	0	11	0.4	1	1	0.8	1	0.6	1
6	3	144	0	NaN	2	NaN	NaN	NaN	0.2	1	805.92663900461	1	0	NaN	12	NaN	NaN	NaN	NaN	NaN	0	0
6	3	145	1	10	2	0.4	1	0	0.4	2	1211.01153403288	1	0	1	13	0.2	1	3	0.8	0	0.2	1
6	3	146	1	12	2	0.8	1	1	0.8	2	898.012034012936	1	0	1	14	0.4	1	2	0.4	1	0.4	1
6	3	147	1	15	2	0.8	1	1	0.8	2	995.711112045683	1	0	1	15	0.8	1	16	0.6	1	0.8	1
6	3	148	0	NaN	2	NaN	NaN	NaN	0.8	2	1291.34256002726	2	1	NaN	16	NaN	NaN	NaN	NaN	NaN	0.8	0
6	3	149	0	NaN	2	NaN	NaN	NaN	1	1	907.300291990396	2	1	NaN	17	NaN	NaN	NaN	NaN	NaN	0.8	1
6	3	150	0	NaN	2	NaN	NaN	NaN	1	2	1240.54344103206	1	0	NaN	18	NaN	NaN	NaN	NaN	NaN	1	0
6	3	151	1	10	2	1	0	0	1	2	1113.19181800354	2	1	1	19	1	2	9	0.4	1	1	0
6	3	152	1	10	2	0.6	0	0	0	1	1220.752549998	1	0	0	20	1	2	10	1	0	1	0
6	3	153	0	NaN	1	NaN	NaN	NaN	1	2	876.715669990517	2	0	NaN	1	NaN	NaN	NaN	NaN	NaN	0	0
6	3	154	1	10	1	0.2	0	1	0	1	533.416674996261	2	0	0	2	0	1	12	0	1	1	1
6	3	155	0	NaN	1	NaN	NaN	NaN	0.8	2	1185.31638401328	1	1	NaN	3	NaN	NaN	NaN	NaN	NaN	0	0
6	3	156	0	NaN	1	NaN	NaN	NaN	0	1	945.528447977267	2	0	NaN	4	NaN	NaN	NaN	NaN	NaN	0.8	0
6	3	157	0	NaN	1	NaN	NaN	NaN	1	2	756.697707984131	1	1	NaN	5	NaN	NaN	NaN	NaN	NaN	0	0
6	3	158	1	29	1	1	0	0	1	1	900.524227006827	1	1	1	6	1	1	13	0.8	1	1	1
6	3	159	0	NaN	1	NaN	NaN	NaN	0.4	2	1036.2886240473	1	1	NaN	7	NaN	NaN	NaN	NaN	NaN	1	1
6	3	160	1	10	1	1	0	0	1	2	1059.94450795697	1	1	1	8	0.4	1	18	1	1	0.4	1
6	3	161	0	NaN	1	NaN	NaN	NaN	0	1	1107.54375398392	1	1	NaN	9	NaN	NaN	NaN	NaN	NaN	1	1
6	3	162	0	NaN	1	NaN	NaN	NaN	0.4	2	767.762565985322	1	1	NaN	10	NaN	NaN	NaN	NaN	NaN	0	1
6	3	163	1	15	1	0.8	1	1	0.8	1	714.084318024106	2	0	1	11	0	2	16	0.8	1	0.4	0
6	3	164	1	11	1	1	1	1	0.4	1	999.207535991445	1	1	0	12	0.8	2	1	0	0	0.8	0
6	3	165	0	NaN	1	NaN	NaN	NaN	0	2	1060.95076800557	2	0	NaN	13	NaN	NaN	NaN	NaN	NaN	0.4	0
6	3	166	1	17	1	1	1	1	1	1	771.383305022027	2	0	1	14	0	2	17	0.8	1	0	1
6	3	167	1	11	1	0	1	0	0.2	1	1010.82715095254	1	1	0	15	1	2	4	0.8	1	1	0
6	3	168	1	13	1	0.8	0	0	0.2	1	888.390989974141	2	0	0	16	0.2	1	3	0	0	0.2	0
6	3	169	1	10	1	0.4	0	1	0.4	1	800.710168026853	1	1	1	17	0.2	1	7	1	0	0.2	0
6	3	170	0	NaN	1	NaN	NaN	NaN	0.4	2	1006.41922798241	2	0	NaN	18	NaN	NaN	NaN	NaN	NaN	0.4	0
6	3	171	0	NaN	1	NaN	NaN	NaN	0.6	1	699.800667993259	1	1	NaN	19	NaN	NaN	NaN	NaN	NaN	0.4	0
6	3	172	0	NaN	1	NaN	NaN	NaN	0.2	2	934.448977990542	1	1	NaN	20	NaN	NaN	NaN	NaN	NaN	0.6	1
6	3	173	0	NaN	1	NaN	NaN	NaN	1	2	966.804783965927	1	1	NaN	21	NaN	NaN	NaN	NaN	NaN	0.2	1
6	3	174	1	13	1	0	0	1	0	2	670.735006977338	1	1	1	22	1	1	9	1	0	1	1
6	3	175	1	13	1	0.4	0	1	0.4	2	678.103144979104	1	1	1	23	0	1	10	0	0	0	1
6	3	176	1	11	2	0	0	1	0.8	1	1068.49698303267	1	0	0	1	0.4	2	13	0.4	1	0.4	1
6	3	177	0	NaN	2	NaN	NaN	NaN	1	2	973.866190994158	2	1	NaN	2	NaN	NaN	NaN	NaN	NaN	0.8	0
6	3	178	0	NaN	2	NaN	NaN	NaN	0.6	1	690.066164010204	2	1	NaN	3	NaN	NaN	NaN	NaN	NaN	1	1
6	3	179	0	NaN	2	NaN	NaN	NaN	0.8	2	584.780451958068	2	1	NaN	4	NaN	NaN	NaN	NaN	NaN	0.6	1
6	3	180	1	10	2	0.4	0	1	0.4	2	732.104933005758	2	1	1	5	0.8	2	18	0.4	0	0.8	1
6	4	181	0	NaN	2	NaN	NaN	NaN	0	2	1134.56907798536	1	0	NaN	6	NaN	NaN	NaN	NaN	NaN	0.4	0
6	4	182	1	11	2	0.6	1	1	1	2	966.757031041197	2	1	0	7	0	1	19	0.4	0	0	0
6	4	183	0	NaN	2	NaN	NaN	NaN	0.6	1	1258.77405202482	1	0	NaN	8	NaN	NaN	NaN	NaN	NaN	1	0
6	4	184	0	NaN	2	NaN	NaN	NaN	0.6	1	1190.93638204504	1	0	NaN	9	NaN	NaN	NaN	NaN	NaN	0.6	1
6	4	185	0	NaN	2	NaN	NaN	NaN	0	2	679.045348020736	1	0	NaN	10	NaN	NaN	NaN	NaN	NaN	0.6	1
6	4	186	0	NaN	2	NaN	NaN	NaN	1	1	1217.98980102176	2	1	NaN	11	NaN	NaN	NaN	NaN	NaN	0	0
6	4	187	0	NaN	2	NaN	NaN	NaN	0.6	2	512.061272049323	2	1	NaN	12	NaN	NaN	NaN	NaN	NaN	1	1
6	4	188	0	NaN	2	NaN	NaN	NaN	0.8	1	669.443658029195	2	1	NaN	13	NaN	NaN	NaN	NaN	NaN	0.6	1
6	4	189	0	NaN	2	NaN	NaN	NaN	0.8	2	1306.55621102778	1	0	NaN	14	NaN	NaN	NaN	NaN	NaN	0.8	0
6	4	190	0	NaN	2	NaN	NaN	NaN	0	1	759.970559971407	1	0	NaN	15	NaN	NaN	NaN	NaN	NaN	0.8	1
6	4	191	1	10	2	0	1	0	0.4	2	440.890414000023	2	1	0	16	0	1	6	0.4	1	0	0
6	4	192	1	20	1	0.2	0	1	0.2	2	959.747640008572	2	0	0	1	0	1	20	0.6	1	0.4	1
6	4	193	1	15	1	0.6	1	1	0.6	1	602.744864998385	2	0	1	2	0.2	2	3	1	1	0.2	1
6	4	194	1	15	1	0.8	1	1	0.8	1	533.224980987143	2	0	1	3	0.6	2	4	0.6	1	0.6	1
6	4	195	0	NaN	1	NaN	NaN	NaN	0.2	2	720.569772995077	2	0	NaN	4	NaN	NaN	NaN	NaN	NaN	0.8	1
6	4	196	0	NaN	1	NaN	NaN	NaN	0.2	1	922.743385017384	2	0	NaN	5	NaN	NaN	NaN	NaN	NaN	0.2	1
6	4	197	0	NaN	1	NaN	NaN	NaN	0.8	2	747.827397019137	1	1	NaN	6	NaN	NaN	NaN	NaN	NaN	0.2	0
6	4	198	1	13	1	0	0	1	0	2	626.484230044298	1	1	1	7	0.8	1	10	0.6	0	0.8	1
6	4	199	1	22	1	1	1	1	0.6	2	753.076626046095	1	1	0	8	0.2	2	2	0.8	0	0	1
6	4	200	0	NaN	1	NaN	NaN	NaN	0.4	1	1176.26166803529	2	0	NaN	9	NaN	NaN	NaN	NaN	NaN	0.6	0
6	4	201	0	NaN	1	NaN	NaN	NaN	1	1	638.287677953485	1	1	NaN	10	NaN	NaN	NaN	NaN	NaN	0.4	0
6	4	202	1	12	1	0	0	1	0	2	513.02501995815	1	1	1	11	1	1	15	0.8	0	1	1
6	4	203	0	NaN	1	NaN	NaN	NaN	0.8	1	1090.13123001205	1	1	NaN	12	NaN	NaN	NaN	NaN	NaN	0	1
6	4	204	1	17	1	0.6	1	1	1	1	873.501504014712	1	1	0	13	0.4	2	12	1	0	0.8	1
6	4	205	1	17	1	0.8	1	1	0.8	2	552.550180989783	1	1	0	14	0.4	2	13	0.6	0	1	1
6	4	206	1	10	1	0.2	1	0	0.8	1	526.540883991402	1	1	0	15	0.4	2	5	0.2	1	0.8	1
6	4	207	1	12	1	0.2	1	0	0.6	1	828.221640025731	1	1	0	16	0.4	2	4	0.8	1	0.8	1
6	4	208	0	NaN	1	NaN	NaN	NaN	0.6	1	780.096586036962	1	1	NaN	17	NaN	NaN	NaN	NaN	NaN	0.6	1
6	4	209	1	12	1	0.8	0	0	0.8	2	735.922943975311	1	1	1	18	0.6	1	6	0.2	1	0.6	1
6	4	210	1	10	1	0.4	1	0	1	2	1041.10310500255	1	1	0	19	0.4	2	9	0.6	1	0.8	1
6	4	211	0	NaN	1	NaN	NaN	NaN	1	2	530.789589043707	1	1	NaN	20	NaN	NaN	NaN	NaN	NaN	1	1
6	4	212	1	11	1	1	0	0	1	2	538.480971008539	1	1	1	21	1	1	10	0.4	1	1	1
6	4	213	0	NaN	1	NaN	NaN	NaN	0.2	2	896.590119984467	1	1	NaN	22	NaN	NaN	NaN	NaN	NaN	1	1
6	4	214	0	NaN	2	NaN	NaN	NaN	0.4	1	645.947440003511	1	0	NaN	1	NaN	NaN	NaN	NaN	NaN	0.2	1
6	4	215	0	NaN	2	NaN	NaN	NaN	0	2	646.832388010807	1	0	NaN	2	NaN	NaN	NaN	NaN	NaN	0.4	1
6	4	216	0	NaN	2	NaN	NaN	NaN	0.4	2	851.091807009652	2	1	NaN	3	NaN	NaN	NaN	NaN	NaN	0	0
6	4	217	1	28	2	0.8	1	1	0	2	575.250402034726	2	1	0	4	0	1	14	0.8	0	0.4	1
6	4	218	1	10	2	0.6	1	1	0.6	2	876.238043012563	1	0	1	5	0	1	17	0.6	1	0	0
6	4	219	0	NaN	2	NaN	NaN	NaN	1	1	1060.77172700316	2	1	NaN	6	NaN	NaN	NaN	NaN	NaN	0.6	0
6	4	220	0	NaN	2	NaN	NaN	NaN	0.6	2	1115.52857101196	1	0	NaN	7	NaN	NaN	NaN	NaN	NaN	1	0
6	4	221	1	18	2	0.8	1	1	0.8	2	1027.24714501528	1	0	1	8	0.6	1	12	0	1	0.6	1
6	4	222	0	NaN	2	NaN	NaN	NaN	0.4	2	1203.29770195531	1	0	NaN	9	NaN	NaN	NaN	NaN	NaN	0.8	1
6	4	223	1	10	2	0.2	1	0	0.2	1	769.784575968515	1	0	1	10	0.4	1	22	1	0	0.4	1
6	4	224	0	NaN	2	NaN	NaN	NaN	1	2	945.664195984136	1	0	NaN	11	NaN	NaN	NaN	NaN	NaN	0.2	1
6	4	225	0	NaN	2	NaN	NaN	NaN	0.6	1	971.484247012995	1	0	NaN	12	NaN	NaN	NaN	NaN	NaN	1	1
6	4	226	1	11	2	0	1	0	0	2	1358.16601500846	1	0	1	13	0.6	1	2	0.4	0	0.6	1
6	4	227	1	13	2	0.4	1	0	0.6	2	989.400621969253	2	1	0	14	0	1	1	0.2	1	0	0
6	4	228	0	NaN	2	NaN	NaN	NaN	1	2	989.84490899602	1	0	NaN	15	NaN	NaN	NaN	NaN	NaN	0.6	0
6	4	229	0	NaN	2	NaN	NaN	NaN	0.2	2	794.420589983929	2	1	NaN	16	NaN	NaN	NaN	NaN	NaN	1	0
6	4	230	1	11	2	1	0	0	1	2	904.245568031911	2	1	1	17	0.2	2	6	0.6	1	0.2	1
6	4	231	1	15	1	0.4	1	0	0.4	1	770.328139944468	2	0	1	1	1	2	3	0	0	1	1
6	4	232	1	10	1	0.4	0	1	0.2	2	1096.96640400216	2	0	0	2	1	1	9	0.8	1	0.4	1
6	4	233	1	13	1	0.6	0	0	0.6	2	733.719116018619	1	1	1	3	1	1	7	1	1	0.2	0
6	4	234	0	NaN	1	NaN	NaN	NaN	0.8	1	805.248998978641	1	1	NaN	4	NaN	NaN	NaN	NaN	NaN	0.6	1
6	4	235	0	NaN	1	NaN	NaN	NaN	0.6	2	739.401627972256	2	0	NaN	5	NaN	NaN	NaN	NaN	NaN	0.8	0
6	4	236	1	11	1	0.6	0	0	NaN	NaN	NaN	NaN	NaN	0	6	0.8	1	12	1	0	0.6	0
6	4	237	0	NaN	1	NaN	NaN	NaN	0.8	2	500.454624998383	1	1	NaN	7	NaN	NaN	NaN	NaN	NaN	NaN	0
6	4	238	0	NaN	1	NaN	NaN	NaN	0.2	1	713.793061033357	1	1	NaN	8	NaN	NaN	NaN	NaN	NaN	0.8	1
6	4	239	0	NaN	1	NaN	NaN	NaN	0.2	2	669.346599956043	2	0	NaN	9	NaN	NaN	NaN	NaN	NaN	0.2	0
6	4	240	1	11	1	0.2	1	0	1	1	641.837053990457	1	1	0	10	0.2	2	16	1	1	0.2	0
6	5	241	0	NaN	1	NaN	NaN	NaN	0.8	1	755.861490033567	1	1	NaN	11	NaN	NaN	NaN	NaN	NaN	1	1
6	5	242	0	NaN	1	NaN	NaN	NaN	0	2	647.918097965885	1	1	NaN	12	NaN	NaN	NaN	NaN	NaN	0.8	1
6	5	243	0	NaN	1	NaN	NaN	NaN	0.8	2	577.00594200287	1	1	NaN	13	NaN	NaN	NaN	NaN	NaN	0	1
6	5	244	1	10	1	0.8	0	0	0.8	1	507.559440971818	1	1	1	14	0.8	1	4	0.6	1	0.8	1
6	5	245	1	10	1	0.6	1	1	0.6	2	1326.36159902904	1	1	0	15	0.2	2	5	0.8	0	0.8	1
6	5	246	0	NaN	1	NaN	NaN	NaN	0.6	2	1000.4743100144	1	1	NaN	16	NaN	NaN	NaN	NaN	NaN	0.6	1
6	5	247	1	10	1	0.8	0	0	0.8	1	609.534862975124	1	1	1	17	0.6	1	7	NaN	1	0.6	1
6	5	248	1	10	1	0.2	0	1	0.2	2	531.941989029292	1	1	1	18	0.8	1	8	0.8	0	0.8	1
6	5	249	0	NaN	2	NaN	NaN	NaN	1	2	558.965397998691	2	1	NaN	1	NaN	NaN	NaN	NaN	NaN	0.2	0
6	5	250	0	NaN	2	NaN	NaN	NaN	1	1	526.287007960491	2	1	NaN	2	NaN	NaN	NaN	NaN	NaN	1	1
6	5	251	1	12	2	0.2	0	1	0.2	1	498.593169031665	2	1	1	3	1	2	9	0.2	0	1	1
6	5	252	1	10	2	0	1	0	0	2	625.083783990704	2	1	0	4	0.2	1	12	0.8	1	0.2	1
6	5	253	1	10	2	0.8	1	1	0.8	1	787.335404020268	1	0	1	5	0.2	1	13	0	1	0	0
6	5	254	0	NaN	2	NaN	NaN	NaN	1	2	1151.59764903365	2	1	NaN	6	NaN	NaN	NaN	NaN	NaN	0.8	0
6	5	255	0	NaN	2	NaN	NaN	NaN	0.4	1	875.989474006929	2	1	NaN	7	NaN	NaN	NaN	NaN	NaN	1	1
6	5	256	0	NaN	2	NaN	NaN	NaN	0.4	1	635.25158300763	2	1	NaN	8	NaN	NaN	NaN	NaN	NaN	0.4	1
6	5	257	0	NaN	2	NaN	NaN	NaN	0.8	1	752.181742980611	2	1	NaN	9	NaN	NaN	NaN	NaN	NaN	0.4	1
6	5	258	1	17	2	0.8	1	1	0.6	1	790.929976035841	2	1	0	10	0.8	1	11	1	0	0.8	1
6	5	259	0	NaN	2	NaN	NaN	NaN	0.4	1	926.427051948849	2	1	NaN	11	NaN	NaN	NaN	NaN	NaN	0.6	1
6	5	260	1	11	2	1	0	0	0	2	622.681451030076	1	0	0	12	0.4	2	1	0.2	0	0.4	0
6	5	261	0	NaN	2	NaN	NaN	NaN	0.2	2	803.807359014172	1	0	NaN	13	NaN	NaN	NaN	NaN	NaN	0	1
6	5	262	0	NaN	2	NaN	NaN	NaN	0.8	1	642.18703599181	2	1	NaN	14	NaN	NaN	NaN	NaN	NaN	0.2	0
6	5	263	0	NaN	2	NaN	NaN	NaN	1	2	698.447849019431	2	1	NaN	15	NaN	NaN	NaN	NaN	NaN	0.8	1
6	5	264	0	NaN	2	NaN	NaN	NaN	0	1	467.793446034193	2	1	NaN	16	NaN	NaN	NaN	NaN	NaN	1	1
6	5	265	1	11	2	1	0	0	1	2	1005.97742298851	2	1	1	17	0	2	6	0.8	1	0	1
6	5	266	1	10	1	0.4	1	0	0.4	2	837.842385983095	2	0	1	1	1	2	8	0.4	0	1	1
6	5	267	1	10	1	0.8	1	1	0.8	2	879.830462974496	2	0	1	2	0.4	2	9	0.4	1	0.4	1
6	5	268	1	22	1	0.6	0	0	0.2	2	676.303836982697	2	0	0	3	0.2	1	16	0.6	0	0.8	1
6	5	269	0	NaN	1	NaN	NaN	NaN	0.2	2	665.285168972332	1	1	NaN	4	NaN	NaN	NaN	NaN	NaN	0.2	0
6	5	270	0	NaN	1	NaN	NaN	NaN	1	2	788.528610020876	1	1	NaN	5	NaN	NaN	NaN	NaN	NaN	0.2	1
6	5	271	1	10	1	0.2	0	1	0.2	2	934.229407983366	1	1	1	6	1	1	13	0	0	1	1
6	5	272	1	10	1	0.8	1	1	0.8	1	656.880735012237	2	0	1	7	0.2	2	14	0.2	1	0.2	0
6	5	273	0	NaN	1	NaN	NaN	NaN	0.8	2	910.823651996907	1	1	NaN	8	NaN	NaN	NaN	NaN	NaN	0.8	0
6	5	274	1	11	1	1	1	1	1	2	889.172585972119	2	0	1	9	0.8	2	15	0.8	1	0.8	0
6	5	275	0	NaN	1	NaN	NaN	NaN	0.8	2	993.253512948286	1	1	NaN	10	NaN	NaN	NaN	NaN	NaN	1	0
6	5	276	1	12	1	0	1	0	0	2	1028.32107798895	2	0	1	11	1	2	16	1	0	0.8	0
6	5	277	1	22	1	0.4	1	0	1	1	561.315104016103	1	1	0	12	0	2	7	1	1	0	0
6	5	278	0	NaN	1	NaN	NaN	NaN	0.4	2	532.539019011892	1	1	NaN	13	NaN	NaN	NaN	NaN	NaN	1	1
6	5	279	0	NaN	1	NaN	NaN	NaN	0.6	1	640.190812002402	1	1	NaN	14	NaN	NaN	NaN	NaN	NaN	0.4	1
6	5	280	0	NaN	1	NaN	NaN	NaN	0.6	2	724.056300008669	1	1	NaN	15	NaN	NaN	NaN	NaN	NaN	0.6	1
6	5	281	1	12	1	0.2	0	1	0.2	1	657.602131017484	1	1	1	16	0.6	1	4	0.2	0	0.6	1
6	5	282	1	23	1	0.4	1	0	0.4	2	612.716438015923	2	0	1	17	0	2	11	0.6	0	0.2	0
6	5	283	0	NaN	1	NaN	NaN	NaN	0.6	1	679.174632008653	2	0	NaN	18	NaN	NaN	NaN	NaN	NaN	0.4	1
6	5	284	0	NaN	2	NaN	NaN	NaN	1	2	647.232795017771	2	1	NaN	1	NaN	NaN	NaN	NaN	NaN	0.6	1
6	5	285	1	10	2	0.8	1	1	0.8	2	885.917826963123	2	1	0	2	0.2	1	10	1	0	1	1
6	5	286	1	13	2	0.8	1	1	0.4	2	942.465760977939	2	1	0	3	0.2	1	8	0.8	0	0.8	1
6	5	287	0	NaN	2	NaN	NaN	NaN	NaN	NaN	NaN	NaN	NaN	NaN	4	NaN	NaN	NaN	NaN	NaN	0.4	0
6	5	288	1	10	2	0.4	1	0	0.8	2	697.125678008888	2	1	0	5	0.2	1	13	1	1	NaN	0
6	5	289	0	NaN	2	NaN	NaN	NaN	0.6	1	529.816775000654	2	1	NaN	6	NaN	NaN	NaN	NaN	NaN	0.8	1
6	5	290	0	NaN	2	NaN	NaN	NaN	1	2	795.351152017247	2	1	NaN	7	NaN	NaN	NaN	NaN	NaN	0.6	1
6	5	291	1	11	2	0.6	1	1	0.6	2	939.791560987942	1	0	1	8	0.2	1	15	0.6	1	1	0
6	5	292	0	NaN	2	NaN	NaN	NaN	0	2	853.566410019994	1	0	NaN	9	NaN	NaN	NaN	NaN	NaN	0.6	1
6	5	293	0	NaN	2	NaN	NaN	NaN	0.8	2	530.95848497469	2	1	NaN	10	NaN	NaN	NaN	NaN	NaN	0	0
6	5	294	1	10	2	1	0	0	1	2	624.464718974195	2	1	1	11	0.8	2	1	0.6	1	0.8	1
6	5	295	1	16	2	0.6	1	1	0.2	1	545.851705013774	2	1	0	12	0	1	14	0.4	0	1	1
6	5	296	0	NaN	2	NaN	NaN	NaN	0	2	687.730349018238	2	1	NaN	13	NaN	NaN	NaN	NaN	NaN	0.2	1
6	5	297	0	NaN	2	NaN	NaN	NaN	0	1	829.755579994526	1	0	NaN	14	NaN	NaN	NaN	NaN	NaN	0	0
6	5	298	1	15	2	0.6	0	0	0.6	2	834.078880026937	2	1	1	15	0	2	18	0.4	1	0	0
6	5	299	1	10	2	0.6	0	0	0.6	1	823.792923998553	2	1	1	16	0.6	2	6	0.8	1	0.6	1
6	5	300	0	NaN	1	NaN	NaN	NaN	0.4	2	1303.22753399378	2	0	NaN	1	NaN	NaN	NaN	NaN	NaN	0.6	1
7	1	1	0	NaN	1	NaN	NaN	NaN	0	1	985.052011001244	2	0	NaN	1	NaN	NaN	NaN	NaN	NaN	NaN	NaN
7	1	2	0	NaN	1	NaN	NaN	NaN	0.8	1	1178.31451200254	2	0	NaN	2	NaN	NaN	NaN	NaN	NaN	0	1
7	1	3	0	NaN	1	NaN	NaN	NaN	0.4	2	817.852159998438	2	0	NaN	3	NaN	NaN	NaN	NaN	NaN	0.8	1
7	1	4	0	NaN	1	NaN	NaN	NaN	0	2	899.304046000907	2	0	NaN	4	NaN	NaN	NaN	NaN	NaN	0.4	1
7	1	5	0	NaN	1	NaN	NaN	NaN	0.2	1	702.569332999701	2	0	NaN	5	NaN	NaN	NaN	NaN	NaN	0	1
7	1	6	0	NaN	1	NaN	NaN	NaN	0.2	2	584.779605000222	2	0	NaN	6	NaN	NaN	NaN	NaN	NaN	0.2	1
7	1	7	0	NaN	1	NaN	NaN	NaN	0.4	1	936.133126000641	1	1	NaN	7	NaN	NaN	NaN	NaN	NaN	0.2	0
7	1	8	0	NaN	1	NaN	NaN	NaN	0.6	2	682.965258001786	1	1	NaN	8	NaN	NaN	NaN	NaN	NaN	0.4	1
7	1	9	0	NaN	1	NaN	NaN	NaN	0.2	1	1027.09312099978	1	1	NaN	9	NaN	NaN	NaN	NaN	NaN	0.6	1
7	1	10	0	NaN	1	NaN	NaN	NaN	0.6	1	663.451460000942	1	1	NaN	10	NaN	NaN	NaN	NaN	NaN	0.2	1
7	1	11	0	NaN	1	NaN	NaN	NaN	1	2	852.477548000024	1	1	NaN	11	NaN	NaN	NaN	NaN	NaN	0.6	1
7	1	12	0	NaN	1	NaN	NaN	NaN	0.2	1	757.492000997445	1	1	NaN	12	NaN	NaN	NaN	NaN	NaN	1	1
7	1	13	1	11	1	0.8	1	1	1	1	656.85035199931	1	1	0	13	0.2	2	2	0	0	0.2	1
7	1	14	1	10	1	0	1	0	1	2	874.091462999786	1	1	0	14	0.2	2	4	0.4	1	1	1
7	1	15	1	10	1	0.2	1	0	0.4	1	1299.96499000117	1	1	0	15	0.2	2	5	0	1	1	1
7	1	16	1	15	2	0	0	1	0.6	2	835.279341001296	1	0	0	1	0.2	2	1	0.4	1	0.4	1
7	1	17	0	NaN	2	NaN	NaN	NaN	0.6	1	801.458715999615	1	0	NaN	2	NaN	NaN	NaN	NaN	NaN	0.6	1
7	1	18	1	11	2	0.4	1	0	NaN	NaN	NaN	NaN	NaN	0	3	0.6	1	7	0.2	1	0.6	0
7	1	19	0	NaN	2	NaN	NaN	NaN	0.2	2	791.039086998353	1	0	NaN	4	NaN	NaN	NaN	NaN	NaN	NaN	0
7	1	20	1	11	2	0.2	1	0	0.2	2	531.263224998838	1	0	1	5	0.2	1	9	0.6	0	0.2	1
7	1	21	0	NaN	2	NaN	NaN	NaN	0	1	906.244281999534	1	0	NaN	6	NaN	NaN	NaN	NaN	NaN	0.2	1
7	1	22	0	NaN	2	NaN	NaN	NaN	1	1	967.32694900129	2	1	NaN	7	NaN	NaN	NaN	NaN	NaN	0	0
7	1	23	0	NaN	2	NaN	NaN	NaN	0.6	2	785.316684003192	2	1	NaN	8	NaN	NaN	NaN	NaN	NaN	1	1
7	1	24	0	NaN	2	NaN	NaN	NaN	0.6	2	708.33227500043	2	1	NaN	9	NaN	NaN	NaN	NaN	NaN	0.6	1
7	1	25	0	NaN	2	NaN	NaN	NaN	0.8	1	623.861033000139	2	1	NaN	10	NaN	NaN	NaN	NaN	NaN	0.6	1
7	1	26	0	NaN	2	NaN	NaN	NaN	0.8	2	677.191080001649	2	1	NaN	11	NaN	NaN	NaN	NaN	NaN	0.8	1
7	1	27	0	NaN	2	NaN	NaN	NaN	0.8	2	586.0536149994	2	1	NaN	12	NaN	NaN	NaN	NaN	NaN	0.8	1
7	1	28	1	16	2	0.2	1	0	0.8	1	699.750918000063	2	1	0	13	0	1	12	1	1	0.8	1
7	1	29	0	NaN	2	NaN	NaN	NaN	0	1	609.981949000939	2	1	NaN	14	NaN	NaN	NaN	NaN	NaN	0.8	1
7	1	30	0	NaN	2	NaN	NaN	NaN	0.6	2	511.987895002676	2	1	NaN	15	NaN	NaN	NaN	NaN	NaN	0	1
7	1	31	1	10	2	0	1	0	1	1	608.758827002021	2	1	0	16	0	1	6	0.2	1	0.6	1
7	1	32	1	13	2	0.2	1	0	0.2	2	474.294330000703	2	1	0	17	0	1	4	NaN	1	1	1
7	1	33	1	11	2	1	0	0	1	1	466.537991000223	2	1	1	18	0.2	2	7	0	1	0.2	1
7	1	34	0	NaN	2	NaN	NaN	NaN	0.6	2	561.45495599776	2	1	NaN	19	NaN	NaN	NaN	NaN	NaN	1	1
7	1	35	1	12	2	0.6	0	0	0.6	1	398.921656997118	2	1	1	20	0.6	2	8	1	1	0.6	1
7	1	36	1	10	1	0.8	1	1	0.8	1	503.570949000277	2	0	1	1	0.6	2	11	0.8	1	0.6	1
7	1	37	1	13	1	0.6	1	1	0.6	1	532.220406999841	2	0	1	2	0.8	2	9	0.6	1	0.8	1
7	1	38	0	NaN	1	NaN	NaN	NaN	1	1	587.909563997528	2	0	NaN	3	NaN	NaN	NaN	NaN	NaN	0.6	1
7	1	39	1	12	1	0.8	1	1	0.8	2	431.750448002276	2	0	1	4	1	2	12	0.8	1	1	1
7	1	40	1	10	1	0.6	1	1	0.6	2	549.103346998891	2	0	1	5	0.8	2	15	0	1	0.8	1
7	1	41	0	NaN	1	NaN	NaN	NaN	0	1	536.760353999853	2	0	NaN	6	NaN	NaN	NaN	NaN	NaN	0.6	1
7	1	42	0	NaN	1	NaN	NaN	NaN	1	2	703.083773001708	2	0	NaN	7	NaN	NaN	NaN	NaN	NaN	0	1
7	1	43	1	14	1	0	1	0	0	2	508.590288001869	2	0	1	8	1	2	14	0.8	0	1	1
7	1	44	1	10	1	0.6	1	1	0.6	1	490.568503999384	2	0	1	9	0	2	19	1	1	0	1
7	1	45	1	28	1	0.6	0	0	0.2	1	532.411385000159	2	0	0	10	0	1	2	0.6	0	0.6	1
7	1	46	0	NaN	1	NaN	NaN	NaN	0.8	1	592.020561998652	1	1	NaN	11	NaN	NaN	NaN	NaN	NaN	0.2	0
7	1	47	0	NaN	1	NaN	NaN	NaN	0.4	1	451.136493000377	1	1	NaN	12	NaN	NaN	NaN	NaN	NaN	0.8	1
7	1	48	0	NaN	1	NaN	NaN	NaN	0	1	545.746833999146	2	0	NaN	13	NaN	NaN	NaN	NaN	NaN	0.4	0
7	1	49	0	NaN	1	NaN	NaN	NaN	1	2	683.317376999184	1	1	NaN	14	NaN	NaN	NaN	NaN	NaN	0	0
7	1	50	0	NaN	1	NaN	NaN	NaN	0.8	2	711.356579999119	1	1	NaN	15	NaN	NaN	NaN	NaN	NaN	1	1
7	1	51	0	NaN	1	NaN	NaN	NaN	0.8	2	573.047078996751	1	1	NaN	16	NaN	NaN	NaN	NaN	NaN	0.8	1
7	1	52	1	11	1	0	1	0	1	2	646.169309999095	1	1	0	17	0	2	6	0.6	1	0.8	1
7	1	53	0	NaN	1	NaN	NaN	NaN	0	1	889.593972999137	1	1	NaN	18	NaN	NaN	NaN	NaN	NaN	1	1
7	1	54	0	NaN	1	NaN	NaN	NaN	1	1	643.97215200006	1	1	NaN	19	NaN	NaN	NaN	NaN	NaN	0	1
7	1	55	1	13	1	1	1	1	0.8	2	607.33178800001	1	1	0	20	0	2	7	0	0	1	1
7	1	56	1	18	1	1	1	1	1	1	641.025156000978	1	1	0	21	0	2	3	0.6	0	0.8	1
7	1	57	1	10	2	0.4	1	0	0.4	1	801.062655998976	1	0	1	1	1	1	12	0.8	0	1	1
7	1	58	1	10	2	0	0	1	0.2	1	696.760535000067	1	0	0	2	0	2	13	0.4	1	0.4	1
7	1	59	0	NaN	2	NaN	NaN	NaN	0.6	2	647.771651001676	1	0	NaN	3	NaN	NaN	NaN	NaN	NaN	0.2	1
7	1	60	0	NaN	2	NaN	NaN	NaN	0	2	472.78842599917	1	0	NaN	4	NaN	NaN	NaN	NaN	NaN	0.6	1
7	2	61	1	10	2	0.8	1	1	0.8	1	1039.81824500079	1	0	1	5	0	1	16	0.8	1	0	1
7	2	62	1	12	2	0.8	1	1	0.8	2	677.758298999834	1	0	1	6	0.8	1	15	1	1	0.8	1
7	2	63	0	NaN	2	NaN	NaN	NaN	0	1	558.774336997885	1	0	NaN	7	NaN	NaN	NaN	NaN	NaN	0.8	1
